seq_id,timestamp,roll,pitch,yaw,gyro_x,gyro_y,gyro_z,accel_x,accel_y,accel_z,m1,m2,m3,m4,fault_label
1,0.0,0.024835707650561634,-0.006913215058559233,0.06476885381006925,0.03046059712816051,-0.004683067494466719,-0.018730956555934444,0.15792128155073915,0.07674347291529088,9.71610512281301,4516.276801307579,4486.097469215626,4486.028107392893,4507.258868146981,0
1,0.1,-0.0956640122328899,-0.08624589162565165,-0.05622875292409727,-0.020256622406688476,0.006284946651905478,-0.07264192604169688,-0.14123037013352915,0.14656487689215542,9.764844739902694,4502.025846140637,4457.257554413596,4483.668518264244,4503.327677691296,0
1,0.2,-0.057549678871115145,0.0187849009172836,-0.0600638689918805,-0.005833874995865536,-0.012034132244587938,0.14818225476071503,-0.0013497224737933921,-0.10577109289559004,9.974508982420637,4463.374690500869,4506.265907850143,4441.209896283607,4460.154418533047,0
1,0.30000000000000004,0.009843061793456176,0.03692332899977052,0.01713682811899705,-0.0023129656477648107,-0.0060220739117857755,-0.1182817592293942,-0.07198442083947086,-0.046063877095978756,10.021424445243783,4510.308548687054,4447.108795339118,4509.7225190818435,4488.447531587511,0
1,0.4,-0.03384610001529794,0.030583814442043396,0.1030999522495951,0.018625602382323973,-0.01678435046445277,-0.024736990068097167,0.033126343140356396,0.09755451271223592,9.714165152430942,4494.430230700085,4466.809950779819,4464.11380127758,4524.375774671826,0
1,0.5,0.06781200142854114,-0.0036005060790166923,0.10035328978920242,0.007232720500952683,-0.012902395092102486,0.028911648440673114,0.15380365664659693,-0.003582603910995154,10.122928731162801,4421.407646877307,4524.6570751312565,4502.611412047145,4491.029779486024,0
1,0.6000000000000001,0.004588038826775115,-0.09937844573004465,-0.021967188783751194,0.007142251430234928,0.029557880894830323,-0.041461617461891795,-0.08084936028931877,-0.05017570435845366,9.993080423540416,4509.862533289791,4484.107193886989,4515.3980229934,4502.912326480441,0
1,0.7000000000000001,0.04843224952664446,-0.03510265469386762,-0.032766214659776825,-0.007842163062643152,-0.029270298962642372,0.023689622165166086,0.026105527217988936,0.000511345664246089,9.76308257332497,4457.538877738488,4487.380640317039,4489.718564504197,4475.931681923352,0
1,0.8,-0.008064285583300457,0.020202542840726923,0.18861859012105303,0.0034915562566367794,0.005151007814455287,-0.005955673261293377,-0.19187712152990416,-0.002651387544921688,9.822046041988205,4573.897263374559,4494.229171056566,4509.046420270009,4498.958646908843,0
1,0.9,-0.05843390188097661,0.05714114072575103,0.07519330326867742,0.01582063894086094,-0.018187749095894778,0.11222354487488793,-0.1401851062792281,0.05868570938002703,10.248091125161997,4470.283910246079,4483.011068111917,4502.989540952629,4484.895730376514,0
1,1.0,-0.07753317155330663,0.0034281487403013664,-0.10623037137261049,0.009471848612703632,-0.018388484684676062,0.12399475240140316,-0.07832532923362372,-0.03220615162056756,9.972703443473934,4463.074070506981,4506.823798038124,4539.214282628473,4451.7755029631635,0
1,1.1,0.009231692926615211,0.012994139712421178,0.07818228717773104,-0.02473901421756164,-0.026409132261685526,0.04175532524935181,0.029698467323318607,0.025049285034587657,9.879289641899396,4479.599258352645,4506.96761091483,4508.79217419896,4478.569457459209,0
1,1.2000000000000002,0.09328872555723783,0.023691646045589376,-0.11913034972026487,0.013131072172676594,-0.01949363340454643,0.06296676829939617,0.11585955790074041,-0.08206823183517105,10.002675225848865,4512.383427808095,4524.6618047998345,4556.903789479618,4492.638356519914,0
1,1.3,-0.037686808217874485,-0.04447572148127617,-0.08158102849654383,-0.001542034188282084,0.006823039496332878,0.022135263946401525,0.08271832490360238,0.001300189187790702,10.100706815431463,4492.0602950028615,4581.6050749976885,4518.77002043295,4474.2852733075115,0
1,1.4000000000000001,-0.053544624903055615,0.024123620762159265,-0.02234627853258509,0.01428000988184184,0.009464752491470897,-0.005826313012549822,-0.0846793718068405,-0.15148472246858646,9.720697009586596,4525.691963829704,4506.422812323906,4462.6278366386405,4505.195427775536,0
1,1.5,0.01926586898644184,-0.044192871810056655,0.015372510594552791,0.0011641743689199979,-0.022859405956612462,0.028622988827862662,0.05607845263682344,0.1083051243175277,10.02076041040698,4458.669918961287,4471.865248802546,4515.45105801626,4515.413578527367,0
1,1.6,0.0257523843153024,0.19263657453273608,0.0570890510693167,0.02271131280361198,0.019080035269864046,0.05211130010446384,-0.031526924464034566,0.07589692204932674,9.655434957092487,4492.895441797799,4485.439093565127,4502.456224181589,4569.439757000206,0
1,1.7000000000000002,-0.09336325962958741,0.03431300951872567,-0.16127158711896517,-0.00943863731578867,0.021779011939347323,0.005142401527637021,-0.10777447779293062,-0.07153037092599683,9.945919549786936,4478.089001048486,4506.493757687459,4501.367155197115,4480.451989571826,0
1,1.8,0.1071972044662663,0.03169595111590056,-0.20251425866576073,0.003729086295388553,-0.01323572929536776,0.06819466678369791,-0.07925207384327007,-0.011473644146689901,9.910997455796092,4525.972655825104,4463.991107788327,4489.9649629247715,4485.751640665171,0
1,1.9000000000000001,-0.0326664616286856,0.08827271201405484,0.040498171096095555,-0.025217679086700903,0.018357238941095522,0.16977249576101067,0.1032465260551147,-0.15193699659540136,9.71315318542675,4538.007334475598,4478.769916031437,4513.314582844387,4523.23902160288,0
1,2.0,-0.04634652357890415,-0.002976267803090004,-0.3241267340069073,-0.020487752826685798,-0.005051363027863206,-0.09982265455718796,0.16324113039316354,-0.14301413779606328,9.721991102660605,4503.922217318583,4543.238198671984,4456.9241354646165,4534.894912564649,0
1,2.1,0.0005116530509793525,-0.04907543255239755,0.04621034742632708,0.003981193911469401,-0.012004337543175893,0.005584166799201513,-0.03853135968617602,0.011351734525124805,9.94242613490421,4547.580504484361,4462.865535035195,4563.991001239688,4441.437366014325,0
1,2.2,-0.007589254751779167,0.029415860324228826,0.028099186773503267,-0.012453990396411875,-0.0041624450071455045,-0.039440074772706626,-0.058936475694421155,0.08496020970210247,9.88140309719301,4479.21271214218,4526.9879962629975,4509.2189856262985,4524.385863565169,0
1,2.3000000000000003,0.03148144209618061,-0.041449750546103614,-0.05601810401969696,0.014945872102465237,0.012207405308669298,-0.0016721275171318506,0.0117327383308782,0.12776648957884248,9.691685722232835,4516.412921435101,4493.934220426983,4493.469563903183,4532.963305559616,0
1,2.4000000000000004,0.041270817449401496,0.04067548180003193,0.1305478807154329,0.000420076832655181,0.013639059425899278,-0.024821340527476483,0.032416635248844215,-0.013014305436768459,9.829399192998544,4517.8547107631075,4475.453379502996,4562.7716182705635,4469.819478555009,0
1,2.5,-0.06070943063938661,0.05790554367500339,0.07916626939629359,0.012482396341043103,0.012566910185285598,-0.00097974182775317,-0.08972543714858316,0.007580455819372634,9.674567657697578,4529.253592002533,4495.588278554936,4475.235084096224,4490.35842475041,0
1,2.6,0.020646572713781217,-0.028186227640198736,-0.08222203955664315,0.004873744229838246,0.004899331422174456,-0.04055545402969038,-0.04710383056183228,0.02320499373576363,9.520383131700536,4457.776086768703,4478.446673362427,4493.596585448645,4509.32722696794,0
1,2.7,0.0737678108474776,0.042882981160100975,-0.015993852996342713,-0.00038032415805377664,-0.02005058729275618,-0.0014810508793911944,-0.028865863892013833,0.03227185603380895,9.644553811289535,4515.580395427235,4545.982167390077,4496.737195546294,4512.051351662968,0
1,2.8000000000000003,0.03450719958555563,-0.020061023594291814,0.022409248181041678,0.0002518480156358972,0.0019535219709766343,-0.06184078270843732,0.0024510174258942715,0.049799829124544975,10.10022872155901,4528.778124782556,4564.595473725347,4476.979573113358,4526.16961910162,0
1,2.9000000000000004,0.009167100286917588,0.10949014666088362,-0.08082982853551515,-0.01679443684361552,-0.011987852908880443,-0.16991165794478455,-0.052575502168076105,-0.07591326615536981,9.840078757295242,4510.252679273315,4556.285125176477,4528.512715145582,4482.692890330128,0
1,3.0,-0.0449207335674179,0.02459595857532529,-0.1320233207020642,0.03662917531708708,0.02358880241442574,-0.03753405216837639,-0.17131345290908775,0.1353872374165413,9.787092030949477,4537.134489359204,4452.167170236169,4482.018749311387,4500.157310991545,0
1,3.1,0.002349029688237103,-0.022503273573962184,0.062284993234749876,-0.02135240858765189,-0.00284758970042587,0.00962365053695191,0.051443883405874906,0.07116148780888898,9.585071581632427,4453.976574877931,4538.330304656955,4509.969420359388,4477.545403903303,0
1,3.2,0.07755759877612615,0.005783731714642934,0.11792971840638265,0.001350369628202179,0.041214958497639745,0.14042726739545636,-0.02489641484790735,0.09715709509543555,9.93907518991703,4541.058946725971,4471.052296182597,4520.581543799954,4531.752734605488,0
1,3.3000000000000003,-0.08793697432115571,-0.05916292563328876,-0.20392321777601008,-0.005388136688891155,0.014350845115919247,0.12018856416768225,0.007409478041977519,0.1628615545571292,9.533979708357021,4448.8985268193455,4498.333569033101,4511.521963468179,4499.019157557177,0
1,3.4000000000000004,-0.10337210500199384,-0.00445600197563942,-0.13044695005048532,0.01339345097660077,0.007331964921936966,-0.07519038290618842,-0.05138669173366936,-0.10592135218889516,9.797464180545367,4528.654269615037,4470.4282186099335,4515.121395465535,4484.092271448827,0
1,3.5,-0.03964364161311721,-0.005351517997727892,-0.10352423224193741,-0.011072986106943641,-0.02395755785177697,0.15717801063331113,0.0035263551971728615,-0.06997255079925856,9.852795982146844,4496.630158509275,4493.370912014003,4518.425001001303,4522.725231301419,0
1,3.6,-0.026525057380526375,-0.028790912032234002,-0.027505169715164403,-0.046038423294711694,-0.030303821243971046,0.10934994139556198,0.16449677135012838,-0.024903603955637833,9.925311392611153,4509.337504636306,4592.366424253657,4533.587247343037,4496.162472255577,0
1,3.7,-0.04777702203002129,-0.08032231601287863,0.020346363586722312,-0.015127014905686067,-0.028445074191953485,-0.05172583073940212,-0.1081548003614395,0.1687141635072565,9.98632795138989,4499.760820760502,4544.398324166701,4502.321049229428,4474.161473960152,0
1,3.8000000000000003,0.07615620386348287,0.026945502184232934,-0.10372461543264565,-0.003806773561672164,-0.017512365067695143,-0.11062397847714689,0.09261775475316414,0.19094166404701307,9.530286485236172,4516.889077100717,4480.480722926345,4485.386238487059,4482.228182272834,0
1,3.9000000000000004,-0.0431995384839908,0.0024260813972413497,-0.08309501164110378,0.005409136515596776,-0.0010047621889827392,-0.01911584374931278,-0.09075636620415979,-0.05767713305683328,9.961078245165151,4515.027515628732,4470.673342656043,4502.979969162877,4522.541613701153,0
1,4.0,-0.0834702640560686,0.027168009618996753,-0.06626237589458467,0.011411973371863187,-0.015265183130850337,-0.14439056805316153,-0.16275424378831627,0.0048084946661382,9.861944500344297,4472.870501246868,4519.1577737633215,4450.154398131931,4498.01760604058,0
1,4.1000000000000005,-0.06055080998812284,-0.03259180539010796,0.004739867131641402,-0.017208267305679047,-0.007691110884596507,0.08050342473715524,-0.057689186952314876,0.08356921120651419,9.584058629068476,4515.894125337459,4543.247058619737,4425.850664996181,4476.093142335886,0
1,4.2,0.028853606359027003,-0.010152269302149635,0.03711458733713088,-0.012079703734316412,0.0017317957494579984,-0.01245417883136636,0.11677820616598074,0.025442084330121312,9.87752053241504,4487.643691016326,4485.371813277825,4487.023254365411,4511.833564271349,0
1,4.3,-0.02104922404101315,0.014488742844820646,0.2075400798645439,0.01742249406863385,-0.006520470643356823,0.09609711377311558,-0.04080753730215514,-0.2038124535177854,9.60838273781652,4443.876242369224,4489.454595478761,4500.552551375687,4550.293119368259,0
1,4.4,0.016346368688208133,-0.010955026440443213,0.08294055811834893,-0.0442227061801577,0.0047122911621713184,0.061669215510957345,-0.14785862457798415,0.11437540432069292,9.877699281498883,4487.541362582976,4518.983455983189,4568.1207857341315,4505.455987651755,0
1,4.5,0.012411029315016805,-0.022968044977012207,-0.08498443694647918,0.016606716330884914,-0.017121676518177344,0.005725298977551398,-0.04776574467651167,0.04789798257463919,9.87673242105739,4531.126198327737,4484.699508034358,4491.903751941199,4470.6370885265305,0
1,4.6000000000000005,-0.02221466300380558,0.01886502465224261,0.0756988616645352,-0.01844330648355251,0.017392118402113205,0.10845102870439607,0.041343490322370086,0.1876795812558066,9.655242160179286,4462.660358900657,4446.638392532872,4544.881329344676,4519.630969690622,0
1,4.7,-0.0027792335455227536,0.013998431315991015,-0.11254890472983765,0.04891503959233653,0.00258442363950455,0.008751583568391431,0.07257666238986919,0.048100923173671324,9.854776804855828,4476.28576633664,4514.14405071408,4556.460734894251,4540.36260138465,0
1,4.800000000000001,0.07965933133196985,-0.025560783821559258,-0.0989604820258581,-0.002515738401992963,0.0011144982457738921,0.08753532147767588,-0.16924646297148194,0.1529550319460614,9.778398420284203,4487.193567901578,4469.636868742195,4450.354299844027,4524.695117518858,0
1,4.9,0.0036658983594201945,-0.0644980449870527,-0.12950787720636162,-0.006715693985802565,0.03338043050578786,-0.020767308109088382,-0.15031429531181062,-0.024574306408594433,9.755455286050466,4419.093400711753,4498.371154004466,4493.07196409374,4520.886190944402,0
1,5.0,0.09244780474726727,0.056328251477387875,-0.02688886905548306,-0.022130518174833406,0.05146719606499721,0.004737474721159061,0.0013929291912946203,-0.002412508711000328,9.849616952153571,4495.669187642282,4482.790139793593,4483.594231762788,4499.01740189352,0
1,5.1000000000000005,-0.02717123855668825,-0.03564228913385822,0.010643022769189684,-0.005099544348417105,0.030079859771653773,-0.21207758467144097,0.10915068519224619,0.1246085192497629,9.395321953518371,4489.719372177589,4488.856774020126,4457.774649158466,4476.665499372274,0
1,5.2,-0.05552879227329144,0.08761352217118114,0.09356783931474612,0.025431101899883176,0.014433441280864703,-0.09032414169737833,-0.05245202662797737,0.04893745612279181,9.565574438221612,4521.389952905171,4492.790238055256,4488.755375773512,4521.328799046105,0
1,5.300000000000001,0.022213165574301988,-0.018048308290953996,0.11593298033642481,-0.021621266551997947,0.012318712138885276,0.0474481006374707,-0.03095464393139903,0.0326133022242118,9.55977728472294,4527.720810576207,4494.45293590671,4484.318309384429,4531.470276775107,0
1,5.4,-0.035217184527137964,-0.07042306481817799,-0.15566291735239038,0.012120199026912793,-0.025608587049925663,0.14038353455874916,-0.20819294078837222,0.16964563682900383,9.852203493440523,4497.098606643888,4483.652427395731,4511.974083430562,4498.870958927255,0
1,5.5,0.055165094100826075,0.005711382433101982,0.01503017614618776,-0.007272244244277117,-0.0011389124744213492,0.024624141511364734,-0.17101683926566258,-0.1348185422105713,9.958652818804543,4505.125963143838,4494.480499909419,4500.5530179919615,4510.42745116085,0
1,5.6000000000000005,-0.026987984015468078,-0.03891523627011564,0.019584525509768157,-0.01956745555230064,0.008165055114289436,-0.13620668833902724,0.10291556373256437,0.0472597482413043,9.861205946862775,4529.4807295183655,4549.964233333877,4530.431101950544,4444.773773060051,0
1,5.7,-0.06397884833678508,-0.03124092888478394,0.0026091050210833786,0.01035318040938246,-0.014514876263069312,0.014941341158166267,-0.07553829323533226,-0.061151780299194824,9.528667780630355,4472.3030026166725,4459.44946183151,4470.72380241068,4531.609253898235,0
1,5.800000000000001,-0.047469944441597155,0.13161910324186954,0.049331790088088925,0.003696722473897478,-0.017167155603624272,0.05602479035271931,-0.0575637826237774,0.012200981464536145,10.32201690765376,4497.118203008261,4534.47819978857,4478.904707246224,4498.950345285091,0
1,5.9,0.0885400317817755,-0.03134835288938837,0.18124485579969288,0.014155038709109509,-0.011249335517885354,0.05059261912444168,0.097255444962673,0.062180996221719645,9.49595505602191,4478.185884725254,4492.574440933455,4497.766997126999,4518.620162926521,0
1,6.0,0.008885050046662691,-0.06676721793550507,0.03801978510059632,0.012211714905676463,0.011195808958620797,0.08646245804436975,0.08339221545489041,0.04591800792284367,9.79596685770827,4450.171171994521,4512.888546573978,4506.230630614893,4508.147365115861,0
1,6.1000000000000005,-0.06383742879101548,-0.05405282702041312,0.10531528533329036,-0.0007911030771331008,0.013630013947452488,0.002265470090436894,0.002975613949574519,0.09382838059759978,9.706791054356525,4502.883623308229,4486.131741338849,4486.965113177031,4490.724836295941,0
1,6.2,0.011106688581685642,-0.023937431083173866,0.12557561255735208,-0.01789214604439008,-0.003737432883227181,-0.035178484661934,0.1446977884353733,0.019655477651157466,10.016368907893728,4455.433188808891,4508.011507976078,4526.688923868703,4502.468519678263,0
1,6.300000000000001,0.053274018753267566,-0.02586442250501861,0.140934744018558,0.045977962472385,-0.007256771208793181,-0.035640201712061746,0.1453384477117701,0.15795721457307124,9.705427994569346,4487.394395487125,4491.546461734185,4459.666484668972,4472.440441605474,0
1,6.4,-0.0502070383376034,-0.03838987825520643,-0.0034684887386781183,0.004684294650730415,0.031010009856281537,-0.07986832325910329,0.09843223984765838,-0.021398884422550897,9.800107258069515,4520.244584764998,4466.318339353131,4511.4722923855215,4504.993566246391,0
1,6.5,0.024622563200407455,0.014458432195390905,0.24553001399108942,-0.01275479968502632,-0.010619939100036353,-0.04985124211398115,-0.05554771191602547,-0.06373871273065178,10.04780330622151,4542.615127439695,4482.877611187516,4475.029332806873,4514.142466691592,0
1,6.6000000000000005,-0.027611152214048564,0.03164659088777554,0.02029230208512997,-0.03031488229994464,0.030950104026601234,0.14367021384764175,-0.06127886904843863,-0.03877015599359842,9.867173078144981,4510.033703699611,4519.756328180185,4560.306136162991,4494.6915831751785,0
1,6.7,-0.03991486222692269,-0.06896596140072636,-0.07309300399419191,-0.0006625394574759419,0.03589115727035575,-0.04140890392289372,0.022378795163889853,-0.0016422896072752075,10.047678654689618,4575.807972776209,4484.0739368123905,4485.316816724453,4531.324826312072,0
1,6.800000000000001,0.03409457448131557,0.09233536628680168,0.0583928185325964,-0.007185841815741191,0.011813096613846186,0.08869628644663262,0.08204821811973641,0.05072740311072978,10.02333493791783,4535.0788677133705,4541.464769731126,4519.461296627689,4494.986457590494,0
1,6.9,0.007335684321666142,0.06032544832541784,-0.08169356709872361,0.0073734661774580235,-0.007866776246547214,0.002299585834785399,0.12784518626072988,0.019109906801990335,9.81928730963123,4459.204315770602,4522.387606980817,4519.364525434232,4564.897641699164,0
1,7.0,-0.015388911747650042,0.010957516383196949,0.024938368371075527,0.03154906559526949,-0.001905910647739042,0.02232172206162714,0.060789650971653925,0.01866091231563581,9.720713277089894,4505.82269978695,4532.208952495793,4469.204541017668,4503.989090224406,0
1,7.1000000000000005,-0.035006040746958664,0.059752331446242125,-0.15231869047837748,-0.011178436945431768,0.007544237501290418,0.12524192233874723,-0.00657502610729878,-0.05551995266931984,10.186231413888118,4456.559582987513,4434.035821301398,4513.2004335016,4484.938373269421,0
1,7.2,-0.05106164085653567,0.03541782236496767,0.024380071377119884,-0.011281572614734567,-0.025606087973417888,0.06979658626241157,0.0650201177958661,-0.00991758637793829,10.179327399209534,4467.8974570102155,4454.2342448722575,4479.242757903563,4498.632419509335,0
1,7.300000000000001,0.012166972466134593,-0.012061802892816494,0.03520553965142968,-0.02503078848380888,0.02887529208146519,-0.0065720942714055045,0.11172958315881276,0.03427253463777041,9.901350643830757,4517.093018406966,4513.43125680052,4519.281682796026,4539.874575903973,0
1,7.4,0.009826058485073508,0.03545018787942562,-0.008973569428722673,0.028802344308989456,-0.013527846041185395,0.14407523463286526,-0.0040157950644343415,-0.14307751021180481,9.835620882982159,4479.568450275754,4525.219306469662,4480.421280620928,4486.614497003557,0
1,7.5,-0.09447703654727656,-0.022615315962453836,-0.24238793266289568,-0.031678056469714465,0.015208293122885947,0.06286401269206658,0.04254575617849648,-0.0966976143129213,9.800457728771605,4499.891923827283,4465.249059324224,4545.101949053014,4526.32086871727,0
1,7.6000000000000005,-0.011048208691483197,0.001344291949726539,0.02083828079475525,-0.040834697368485814,-0.004943547650411938,-0.054558739839823886,-0.10016200098949156,-0.02811002928859549,10.169537305369905,4519.225285838011,4482.864630306516,4517.177483440685,4541.98066309758,0
1,7.7,0.04623168414563844,0.0029815184960087066,-0.06469367777055739,0.013964466272271799,0.007869707708434991,0.07161545760221859,0.06351718016819695,0.10495527153193351,9.702952957687886,4539.52182196903,4505.927988140772,4562.257826178758,4479.3243654573125,0
1,7.800000000000001,0.08679819015826247,0.00989553917313239,-0.06514180036144483,-0.009677716681086431,-0.006406946163886404,0.033933275712153314,0.05228354880354996,-0.0573700003938579,9.805129081547804,4564.268110758356,4551.826295103021,4513.089710090221,4501.140104345046,0
1,7.9,0.0060015663359130654,0.030675898636520833,-0.10227925651984056,-0.005147530748466902,-0.03337168147755179,0.03193784980842234,0.0647195939702741,-0.0483186462299374,10.124797352658007,4463.22703010993,4456.068753593705,4506.733554556799,4531.412949078364,0
1,8.0,0.08419638457289344,-0.022944213143447002,0.10786808334312957,-0.0007701693900141442,-0.0034525459988163924,0.07069279499893379,0.06523228784134197,-0.15763921569842496,10.10530806994518,4541.402740624423,4481.233118954714,4511.8741060031225,4514.820905588482,0
1,8.1,0.013033688291195356,-0.027515257692271006,-0.06716233679380516,-0.0005110814198289056,0.023454580385187294,0.04348801236755459,-0.0370614332086106,0.07716987106483447,9.240291475873985,4534.462971011163,4447.808586636657,4489.126771757906,4466.409903161216,0
1,8.200000000000001,-0.06473407378604529,0.05804133936892597,-0.04677012013118914,0.006930077634614316,-0.0009384115775836814,0.038163266177849715,0.007682189106025536,-0.12829922241885697,10.009253363889428,4485.187302505161,4453.302543040208,4487.156545171023,4545.022793719029,0
1,8.3,0.042511087105674646,-0.01743260672039296,-0.03492577043184288,-0.006432701024347652,0.04153495967121682,0.030554836178524267,0.043004164719106966,0.10302834540318423,9.857757831805303,4492.228735625379,4494.109504527451,4497.851962217578,4498.883332904705,0
1,8.4,0.036381477181849,0.0025972942903649716,0.07326400772155793,-0.0016143316021716464,0.0015727038063218118,-0.15985605476256862,0.09163276747024815,0.03464884758979927,10.009602021971931,4413.112338654189,4562.651241143421,4495.812311155345,4533.245484502126,0
1,8.5,-0.051995296356276546,0.030638695253128484,-0.10534155631736562,-0.012475379213916102,0.038280627077335726,-0.015254592061067726,0.021743287317972287,0.08700677306887543,9.909136377594521,4504.512567154307,4510.948830073987,4572.102467557148,4498.271436088992,0
1,8.6,0.010054952335748376,0.0525327198003806,0.11055259329579839,0.023740606111207603,0.012774604440583693,-0.09144039301843869,0.16334315323010962,-0.1146345393018688,9.870527093047807,4477.3717244994195,4498.07584960221,4509.862872309104,4509.640716463508,0
1,8.700000000000001,0.02109603771176424,0.08068556345293236,0.045353430151397985,-0.004883132705812974,0.019281743365767146,0.09515763911397125,-0.12276078151369925,0.059740006984985806,9.95023454846218,4491.0730948992,4541.271204399349,4495.498332389024,4503.767293604146,0
1,8.8,-0.008653591214193481,0.0007789523790733767,-0.10962750868952019,-0.028801017651885887,0.03189010126449945,-0.06775690786546623,-0.09913923494563072,-0.21533901136037148,9.6822076504621,4460.307306197775,4549.260454804091,4530.294512680279,4479.3554896446685,0
1,8.9,0.11262179026721544,0.049088274349579714,-0.032483138350862244,-0.049988114297471464,0.045818851451814836,-0.11116579734108768,-0.1645398746956892,0.10225704320096403,10.297950481267854,4541.528184555315,4516.917273601571,4517.842630249958,4525.602466763409,0
1,9.0,0.03794642948933826,0.01405957119846879,0.010420110395187608,-0.0012518625579904482,-0.015079291777333526,-0.022454006149341926,-0.16929568141953855,-0.00983396267947499,9.612281778569818,4466.892320483526,4505.396824534604,4541.760068590338,4527.549498180069,0
1,9.1,-0.07852503018115886,-0.04948140682851688,0.0940771187988216,-0.019649747870766194,-0.004492662999940492,0.04400416792196415,-0.09683444548636354,0.010537550614595992,9.54319490101636,4481.958970681463,4509.5934580242765,4452.21018799405,4513.214242138812,0
1,9.200000000000001,-0.000981889946334061,0.02762449772085739,0.022391413406466144,0.027282808599476883,0.0025044900529581455,-0.03435244329002024,0.012229750303228377,0.05432980290363879,9.81977201406514,4501.217750736117,4478.940249365797,4480.112972473472,4457.92184184601,0
1,9.3,0.08747883715934697,-0.062193161769564256,-0.06929051977959073,-0.014368145311383949,0.017898487538888827,-0.023595974263362223,0.12477420726737339,-0.06734906242438686,9.86579883244476,4474.939588402207,4564.354473833202,4464.372047429115,4509.294621306811,0
1,9.4,0.03168884404660493,0.02068995487257491,-0.018528765887770828,-0.0025964139946685234,0.0008762294395821919,-0.01176016013027909,0.09638791167949097,0.22105230015913513,9.698501642998433,4458.905910612628,4497.351538549462,4577.391280129629,4475.889762960908,0
1,9.5,0.08195584027220337,0.08388504070382204,-0.05535882417079946,0.011379661583705507,0.03256793246257076,-0.03033021927899897,-0.02035803601023618,-0.058168091394864375,9.607048653861428,4480.52167364802,4463.281791997132,4501.022504047777,4476.900803068241,0
1,9.600000000000001,0.011689295589537387,-0.07779478231018137,0.03308802322144571,0.016670579232178493,-0.03987471285142911,0.02992452558780577,0.12276689924732923,-0.12096410186912054,10.144514477367542,4512.570570280981,4478.849644327248,4498.326927670269,4516.7498073756515,0
1,9.700000000000001,0.0038002695706205753,0.02693779962231846,-0.09206735930793664,0.00338721648072156,-0.028274289938099606,-0.008898084907896026,-0.09039076414647898,-0.07355299425897666,10.057218635042087,4532.739303617828,4518.274143627215,4467.230617059822,4490.507746509156,0
1,9.8,0.06065488499895917,0.0070858456819952375,0.23193295399816943,0.007866356787887437,0.003840982329800632,-0.02472931713620011,0.013354090478228232,-0.015246983638054391,9.951621735337719,4528.701069503838,4476.420316184762,4460.063011393267,4444.913838806901,0
1,9.9,0.025399566345627185,-0.05516833030869368,-0.2152890592952483,0.007771572090619282,0.04985999034865581,-0.0004856729231914659,0.08384907744516419,0.008182935854756502,9.790222069361771,4527.572294489633,4491.2917636743405,4508.021769422157,4509.65093418588,0
1,10.0,-0.03340452268215244,0.04960211747682614,-0.017495975669540864,-0.015114903189856895,0.010730196871408072,-0.07187743854328298,0.002818115736912825,-0.0009118996644203544,10.027179113166316,4514.240946986399,4499.249191237645,4524.532988976009,4541.706226470519,0
1,10.100000000000001,0.027890515317593113,0.0005176309921690304,-0.13118362323501595,-0.02130227326150745,-0.006104494087093353,-0.04876097617274265,-0.0186971302985446,0.005664992489710717,9.915938550871347,4497.885036658227,4514.595049314786,4501.934232444303,4440.736003009384,0
1,10.200000000000001,-0.046966769690937715,-0.007204377786080774,-0.12096947428411076,0.011998574599924091,0.03061501664687395,0.09750094813578533,-0.021344287093020803,0.14907261368499522,9.839733491440423,4489.887420866459,4481.597920093772,4490.925909405356,4488.354695443763,0
1,10.3,0.008520811118774386,0.00802869905249323,0.000304602015341447,0.008738763394926997,0.023812925495726826,0.0759643308353059,-0.14848979684499036,-0.25539211349019547,9.996863982247856,4458.993639047538,4493.257037943219,4464.896609218219,4445.9405868726,0
1,10.4,0.027073136410239403,0.03795775801513235,-0.057651040072671945,-0.0518208458428982,-0.010924888965049655,0.03134432043220372,-0.1478911568774129,0.018335991977915564,9.806938030165401,4517.378744988033,4503.587411052425,4470.807931773554,4535.897145049935,0
1,10.5,-0.007926478651348502,-0.001365226975496593,-0.09332679590731961,-0.008865645023830207,-0.01769605428053802,-0.013835684793873839,0.17117084801423435,-0.13719011429313563,9.487287720424652,4544.135109824808,4493.720289685444,4479.927817840203,4531.197140621883,0
1,10.600000000000001,-0.030280776986843207,0.09130048567734682,0.06779258713392691,-0.009758228162914053,0.04314616426531007,-0.048457193840267074,0.0742095372009307,0.029929258040649193,10.07034825787976,4546.845335901806,4500.960124471973,4477.397463889614,4513.799164288173,0
1,10.700000000000001,-0.03388576848760531,0.10066936237633116,0.013653533108273745,-0.007306431026242174,0.0036936061172981685,-0.10777010316237572,-0.09716140385106516,0.12004139079444254,9.67862114420572,4468.592670519542,4516.099582575818,4535.57112463989,4521.568599319952,0
1,10.8,0.049802384290290824,-0.03783975442847304,-0.14218106667418437,0.030026673039109737,-0.006453596776842715,-0.020066641316403788,0.1328194141849058,0.055623000940065996,9.901177554416321,4564.950070347032,4480.694453088596,4527.835203842437,4501.710393746913,0
1,10.9,0.013429613943162846,0.07642342132062659,0.05078357562896238,0.01076592158099266,0.021450146746196046,-0.029196218363430827,-0.08392096673390065,-0.10448091940210336,9.4167286821248,4561.68621389821,4466.90374902835,4493.362391292427,4491.695601003333,0
1,11.0,0.015370334890455037,0.04078686062696484,0.08604734883597454,-0.011661548771378769,-0.00334243427572823,0.02260639603906397,-0.02486911261835471,0.16073455760199928,9.908194990327651,4522.046333581495,4519.886438060023,4535.20421572456,4505.430646761111,0
1,11.100000000000001,-0.06484159739779233,0.019984397587632083,-0.0651356893791829,-0.010572333634995138,0.011727280375101866,0.09906264571469085,0.002127157673606165,0.03088330125989638,10.150442988927049,4507.222595384657,4578.050493425412,4516.965289368946,4447.177117225326,0
1,11.200000000000001,0.03766708105522663,0.01905791924413889,0.12897527540827455,0.013463627025399168,-0.0027691196796754765,-0.09794385890314926,-0.02090232572860253,-0.08505204542093002,9.693895310039055,4517.657352132618,4550.0971351305425,4511.840145894689,4464.123508138944,0
1,11.3,0.022230133411007037,0.05983157433228256,-0.060978290431938226,-0.0026803433334583538,0.00029376389458394186,-0.0627918650465792,0.0648280433843859,-0.012094814860778158,9.893906488781406,4473.375234665937,4486.876250990298,4521.671440734834,4488.815005437247,0
1,11.4,0.08634819256167026,-0.01998180928073012,0.022468472575188594,0.018651816637461797,-0.028367314658660634,-0.14086470495846207,-0.1525656314570095,0.1262584103427182,9.699628370821511,4576.745978570048,4483.072572040278,4505.536539095911,4546.263298577036,0
1,11.5,0.10030464440795615,0.1030751788318199,0.12083662305931425,0.02048125051622925,0.011850538984023662,0.06226888609333102,-0.055118571632853344,-0.08181988834223072,9.80932510851781,4494.894461324252,4486.403158520182,4520.891623423701,4528.659156257116,0
1,11.600000000000001,0.004420344314592368,0.0738765040527631,-0.1141689114133505,-0.0038731891855943623,-0.014336446412056099,-0.1493229293658448,-0.008268068584269926,-0.012174750838328354,10.112689948648427,4518.924350536643,4469.274395270124,4555.622776990026,4536.631010865761,0
1,11.700000000000001,0.02910488517343079,-0.011324204942491596,-0.09594392367234798,-0.00744413552142106,0.02177497239408372,0.15076690447476873,0.1543243528272189,-0.04888494217862741,9.586076513342197,4504.226587407336,4446.9468190331145,4509.695031425544,4495.57192241104,0
1,11.8,-0.023301825093412113,-0.07973515336333978,0.051360010656971655,-0.010654016793238227,-0.023398336714205763,-0.22978097706253195,-0.0027514905050636256,0.1772251596669744,10.142251842909575,4486.2871123024115,4481.933638189146,4514.063227682251,4470.0484368243515,0
1,11.9,0.0150895949909733,0.03830401391923452,0.12269332238843077,-0.0020030815295990555,-0.004073475003539317,-0.07023860694052489,-0.082688035403986,-0.022647889190152676,9.883473101363236,4527.407538786997,4475.90463147959,4544.780657068785,4491.866291968723,0
1,12.0,-0.001068364717421808,-0.03736058395739117,-0.24242402602729418,0.017680907927220994,0.014736877941848667,-0.02250620456945707,0.0066990717224871925,0.051593921770409945,9.497490828622691,4484.128419679611,4523.8279403886545,4462.371317304923,4508.806737964999,0
1,12.100000000000001,-0.06782909023117026,0.023321499121676317,-0.003564148229748357,-0.03230263631811019,0.023294787089143426,-0.05876732614384394,-0.0810252437014381,0.020056919723094285,10.039727469885744,4469.5253454306485,4501.850395495439,4512.864495009917,4520.793168217894,0
1,12.200000000000001,0.00882207776386126,-0.018351391954166116,-0.08275902206487197,0.001722877660927495,-0.021442780239712137,-0.2337080386795686,0.043655980415766786,0.09039348410861953,9.337413512891633,4469.708078858702,4518.574627830156,4561.724864091351,4500.623811230263,0
1,12.3,-0.03640014706145672,-0.009144822055242008,0.1374876419148185,-0.012919283582490707,-0.01598384013300507,-0.03861948177456259,-0.09533286082587124,0.012267031599479554,10.134935691693913,4509.692378193481,4492.429394936212,4491.245661932534,4453.104275739101,0
1,12.4,0.044155488857357955,-0.003891859850640102,-0.018047991359062567,0.06386215135689721,0.005975058167313725,-0.06014328400761475,-0.04263575962055433,0.11484457091967548,9.832654082107553,4456.851660650479,4527.576868037256,4479.95567743383,4556.198933286526,0
1,12.5,0.05400240328573243,-0.02236609478293756,0.1281016361735113,0.0013571102105480659,0.01705547350244439,0.03877862538355798,-0.08463566549908735,-0.0643549832317462,10.015992163516232,4489.956740036804,4487.89054610274,4471.346322619519,4512.707971967804,0
1,12.600000000000001,0.10312624596215725,-0.053376645712713645,0.002421945667275807,0.028244411108308585,-0.001592827824914303,0.03618974369997871,-0.10623935281468798,0.04283070972076486,9.772571146999091,4529.571899870396,4535.621581546942,4577.686909260558,4517.388995196407,0
1,12.700000000000001,0.016289815829108323,0.009719215078866802,-0.03531662928106884,0.006769676869233823,-0.005908028202780588,0.013476878101569143,0.13175975356079597,-0.10065425652796411,10.03797571222581,4539.513452020196,4496.457944190268,4436.344353029742,4481.765340387167,0
1,12.8,0.06484972732805547,-0.0011434031149441062,-0.09993022322949108,-0.010095498424564349,0.01681240053009106,0.04373868545611034,-0.023893209916969433,-0.03668244118146876,9.731648370191236,4472.327694465045,4548.4612706840835,4490.330385923659,4536.514755624765,0
1,12.9,0.07606580259612257,0.049915544907398024,-0.043162031271804846,0.008074601806732189,-0.00048391212781832333,-0.07229614885841025,0.0324359281721603,-0.11790397911598026,10.047535877692313,4486.061481081048,4506.034789676185,4508.498636146384,4492.232850788878,0
1,13.0,0.029334690073763738,-0.023745182831126223,0.08712972974572442,-0.026919593604934972,0.0025275915909282365,0.1551143199246628,-0.10003313246055748,-0.06777449705248516,9.912781569931784,4505.387453458188,4510.518902978207,4514.67561390443,4519.041644056853,0
1,13.100000000000001,0.05548499209781116,0.020490932846425627,-0.024125765461854246,0.013451474024054626,0.03799763869790431,-0.010610699710605884,-0.09745293046706416,0.11070806692869728,9.785923767209281,4434.819913619579,4525.422650314513,4483.940154421382,4497.284001530875,0
1,13.200000000000001,0.01659901652845073,0.009524983988953321,0.07094518171390395,-0.008709727411396867,0.010262115963521654,-0.020763734206713375,0.0738810480887503,0.061536748401305345,9.622912259591082,4532.579463485251,4483.921096646579,4524.241733948435,4511.01861940204,0
1,13.3,0.09190918383975613,-0.011173299118592607,-0.03493167961181975,-0.0003883921177546522,-0.006063595656685509,0.063995352155364,-0.1616310608436588,-0.10536824191463541,9.596439415684161,4528.5092277592075,4551.318401177457,4496.866523443876,4494.9353483043,0
1,13.4,0.0035026081556590693,0.058093915130409526,-0.09273531341905741,0.004767379654695703,0.019503952595648594,0.04008753359518762,0.01895816165987434,0.10010460925671412,9.269353541400154,4520.336259585927,4480.377729506177,4445.081013094306,4515.336077985749,0
1,13.5,0.06868292725814788,-0.006872425731384593,0.09528745472029389,0.03224556515977291,0.02629828907168095,0.13119716234971143,0.07421274910718922,0.0075433638901592805,9.489606837620567,4492.618125356102,4474.7026021405145,4565.128281524934,4494.72342562703,0
1,13.600000000000001,0.006160240339224284,0.027574268802023377,0.004360244637245373,0.03390102080861506,-0.01245298723468904,0.015568596418979418,-0.07424705856980483,-0.1320022511220706,9.687646181818943,4498.888896088548,4487.120933264482,4479.227370603784,4457.810476089845,0
1,13.700000000000001,-0.004155278631434739,-0.07523601870155011,0.07600559636896026,0.0016487950586900658,-0.02915102998929861,-0.024736726163989076,-0.07521564055905833,0.031917451041918045,10.078090089204629,4443.744825910628,4503.4507823744225,4495.196016133001,4520.1402022935135,0
1,13.8,0.010659831411884459,-0.03759846658694096,-0.03190539356666182,-0.015920517136069783,0.021520142771971968,0.0017049318937553777,0.19011906857530075,-0.006066081381462078,9.668318646617909,4454.588568221615,4445.905809712322,4452.475921709835,4508.013799530345,0
1,13.9,0.025436251161496694,-0.07905953510160668,0.08950383140761155,-0.00966122103366879,0.0029358602397109874,0.12897765026043395,0.08968393158655319,-0.026853064790583234,9.631761554916944,4435.44553796012,4478.425400422728,4493.666092835169,4470.384614185465,0
1,14.0,-0.006562848354615236,0.003842594147938411,-0.022485598180807857,-0.013000051616469195,0.0033730934393345537,0.035355251965552725,-0.10903990774428461,0.141093237974627,9.790282373543148,4500.565488688346,4521.246432697697,4506.996483937905,4528.594099017398,0
1,14.100000000000001,0.014356208260091211,-0.030621868732021898,0.03615035252061016,-0.022874524146413236,0.002171194115530463,-0.002658399251556864,-0.020811685727253972,-0.012853751143893075,9.433630190900473,4483.538252767771,4502.785347034233,4504.795691759922,4469.169745772221,0
1,14.200000000000001,0.06328539204323504,-0.04330874241072505,0.09694572005267368,0.008543887237433698,-0.012924546196876061,0.14202487140876097,-0.11936368317564801,0.09191541736100016,10.010116463608597,4479.881393727701,4541.77395900193,4492.498604562032,4508.660808878396,0
1,14.3,0.013016091938561037,-0.00671543707352739,0.08108082731597821,0.01586977441104426,-0.034970639464763614,0.1043472194302522,-0.16624919880356745,0.10325462043416574,10.035341027365517,4467.271007093544,4487.675571361362,4466.828859945422,4493.552369091338,0
1,14.4,-0.015401714209287064,0.038983026613466996,0.13103087461196083,0.027913676215799123,-0.011243360531566042,-0.016737749899562223,-0.16834381922209504,-0.08058700664961888,10.002970326619492,4548.467484706447,4462.969533843602,4482.226072225413,4499.207827291232,0
1,14.5,0.01400805794098034,-0.04048017599608231,0.04240610444640897,-0.009476786941418323,-0.0002890454175655821,0.04370273984029597,0.0006422269810937817,-0.04363858905265686,9.788078039214835,4497.34911122384,4488.899669103536,4492.236118119987,4547.959415115141,0
1,14.600000000000001,0.028045972397061938,-0.014774015901458019,0.06969544045107356,-0.006676389795120199,0.023462492751732827,0.029571375375847513,-0.01073021440042289,0.04477169258102776,9.495824769586301,4466.196975932706,4464.182249808028,4504.288292842911,4551.975449984553,0
1,14.700000000000001,0.11156500730963162,0.03190255507203786,0.0500844474944457,-0.03602115468305478,-0.010853475994680435,-0.06302270015265911,-0.06208475982511161,-0.01681438185847896,9.715581884460574,4440.621005688727,4522.437307683526,4467.817709227806,4507.177405923335,0
1,14.8,0.10370413348749868,-0.045969229579321175,-0.253028752274633,-0.005720084437602217,0.02201919269997142,0.15666779633764752,-0.1229549594452417,0.04966992232365217,9.71693790864399,4496.821549370876,4579.330300410511,4454.910890148145,4507.612189844837,0
1,14.9,0.02338465858827166,0.05428931624696736,0.009798315347089545,0.006161010790082046,-0.007832971348435823,0.021530155299608587,-0.03431922754974105,0.062157188985605086,9.736077932791273,4511.313011817066,4499.122115589451,4533.781507523165,4498.458188292346,0
1,15.0,-0.08865162341034408,0.06309607503569958,-0.09057323008626189,-0.013075326772976396,-0.011913225880869842,0.10995504745366538,-0.21356742139786955,0.3137748533659994,10.021211361813211,4506.697167423875,4498.353179981512,4508.566622245729,4515.63367285138,0
1,15.100000000000001,0.03226077929750285,0.027780223300172425,0.008958068125524882,-0.003946768406146522,-0.003025465673070234,-0.015592662428214481,0.11337700968670646,0.05935567222808619,9.221922273067145,4519.6770232958925,4505.842085841563,4499.438737306623,4488.344446407334,0
1,15.200000000000001,0.056205635999300674,0.0473763231061429,-0.07728776678236092,0.008141045742490702,-0.01943313469082572,-0.11036945318311445,-0.06267172245899652,0.08623934723827588,10.000625009075218,4515.392562602919,4521.75287360544,4515.485348613449,4480.755552143311,0
1,15.3,0.021596127233697034,0.040020476261384115,0.07542913298135744,0.02377826742949286,0.014166076944021276,0.028115856603326633,0.10701502383164274,-0.0026521259249060064,9.633625069754457,4495.107991081687,4477.652920655806,4479.744651750769,4495.664439878535,0
1,15.4,-0.03962099604999807,-0.015398076481952015,-0.18936146669537857,0.004265874147458771,2.4109507244484736e-05,-0.06536709048545525,0.06592456684324051,0.09375701376265584,9.488488027126206,4477.118256643013,4476.925729506381,4471.802906966734,4524.884245257953,0
1,15.5,-0.009691306938640176,-0.013225742065530538,-0.20038623644067535,0.012708360604184527,-0.02478516789706945,0.00479461042130626,0.02773769379581917,0.1360658595838651,9.548235920176179,4409.4146353253755,4505.5154863426105,4554.015335445326,4537.168390588183,0
1,15.600000000000001,0.01048297076373129,-0.02458180928160237,0.08071225966373104,-0.019470923994089374,0.009527155387124385,0.04043761273333015,0.10602099074988798,0.27596600389110776,9.888483193435754,4484.731091228775,4499.23277063424,4446.9277228533265,4479.158606067328,0
1,15.700000000000001,-0.020464121905655202,-0.026204419896729628,0.0152354872033722,-0.01644839864764401,0.02242061334648943,1.6565193455767507e-05,-0.0009300321138614418,-0.032789471651291785,9.841038136771797,4524.752947940029,4473.986093528673,4480.256505327742,4490.8882191367,0
1,15.8,-0.06729354617366075,-0.04096289298607489,-0.04762208735446591,0.01748778361425455,0.005251226580038499,0.01548719290940355,0.08508979621679723,-0.013737178839939666,9.88809296998578,4496.903347412025,4507.960870481988,4482.517240271653,4426.835485251707,0
1,15.9,-0.006713958109315208,0.07113740680499701,0.09262154022415925,0.019307949691823416,0.02472261443612436,0.007092607276914995,0.019731570740559562,-0.06176518954343502,9.74678542879459,4518.473134493134,4536.116533115064,4495.81661172957,4486.494322054457,0
1,16.0,2.639794282986464e-05,0.030060337446455743,-0.14438548161335418,-0.04592361906274477,-0.011010736989831672,-0.09765699407313269,-0.05081401976473109,-0.014778031881747153,9.719350318195398,4543.574026034123,4509.802342938069,4509.014230788325,4518.6662143213025,0
1,16.1,-0.05694165588903846,0.05195558937101344,-0.007576428653545989,0.013409612344824252,-0.02143714466080311,-0.12430070128128515,0.08178896580250287,0.037640952609751664,9.629589689128498,4473.910107561759,4533.763043532443,4464.31764321398,4549.280188597679,0
1,16.2,-0.04503103673239344,0.03191959628041915,-0.03286184757489846,0.012063748621646862,-0.010882280042283851,-0.013023432485783538,0.004091917539572113,-0.10021874557814728,9.958164869084026,4484.603593005852,4493.142002539799,4470.169518761744,4423.129990236141,0
1,16.3,-0.009551388130008451,0.1206307710806458,0.07846042878980239,-0.00038520759468789283,-0.0052578165841653535,0.0017972714249637103,0.054711911517521,-0.11808128153088449,10.032864338933775,4521.461439463237,4521.545571771238,4513.154272164292,4500.588499730819,0
1,16.400000000000002,0.033643061798341,0.029590706687068903,-0.03540407109410238,-0.01147203545793802,0.0020371259052397337,0.12392161211961499,-0.12391070756539009,-0.146752526575244,9.842952168247304,4501.526631055681,4505.200249931112,4507.318595937255,4493.3039323609555,0
1,16.5,0.07449317193010412,-0.08004519892382578,-0.0828497024780246,-0.002065095202980948,-0.03286377622308335,-0.014068352354565694,0.16614701657280184,0.002088648829596179,9.856140181143736,4462.1950570448225,4481.5091577588155,4488.744108590282,4490.468547097313,0
1,16.6,0.06408218975018844,0.027884553036256227,-0.1111457956937032,0.0049300955686400975,0.009964434969935702,0.09121192308170133,0.15805406865683735,-0.10150941918278687,9.647828497757933,4462.2726642325615,4492.97940422679,4513.99075123339,4529.620035497673,0
1,16.7,-0.0037975511821261385,-0.015992376162742197,0.015175799224874038,-0.01670285803260046,0.04179077443389547,-0.1286128821694447,0.018474057889572446,0.20236062192296395,9.811359968912,4494.298828949955,4489.276637315687,4494.588249547128,4541.185454240296,0
1,16.8,-0.11059309556647534,0.07667168506481628,-0.14239571524501451,-0.005333046584688296,-0.008584888405973237,0.04708426158165758,-0.15981243518837476,0.046217266608194287,10.21486192465737,4459.104779862216,4505.691185028312,4480.140534666101,4512.776616185791,0
1,16.900000000000002,0.000957388870787603,-0.032074345452215484,0.0487872284871074,0.036086962195734866,-0.0038180758345459738,0.05758063537185455,-0.12932729578711638,-0.09564363768180088,9.904481255576076,4544.523480856079,4510.66840046357,4490.608259084305,4499.978742162701,0
1,17.0,-0.06252038669848588,0.03022576631776834,0.08823330623234092,-0.009041806656661608,-0.009400842955190029,0.02127025837216388,-0.043671973604059555,-0.0066132614625822456,10.229944357833304,4492.58922897762,4489.249795439363,4480.573745830945,4522.325759144998,0
1,17.1,-0.00906120866090515,-0.0324686519160713,0.1321304032273012,0.028392060090272744,-0.012008471314774102,-0.1493231961088493,0.10075136898369222,-0.0684629825760004,9.968125119832553,4440.8968854686445,4526.777920148979,4463.664842121577,4521.922923571996,0
1,17.2,0.0007136533918217054,-0.04769697096983225,-0.04070363129267805,0.013726369139134015,0.002117889062304685,0.04675303843779874,0.19764405845154856,-0.15642416117110514,10.133442514993725,4503.130678125696,4473.036478550306,4460.09059122783,4494.326388276689,0
1,17.3,0.04608250559622297,-0.006377456018876711,0.15111549302473476,-0.02902351380103118,-0.00024177895692109122,-0.10019147555304952,0.036363188262496786,0.08868873900973004,9.72584764126379,4421.873584301186,4505.968444403895,4513.102156552005,4512.128842648851,0
1,17.400000000000002,0.061789109591107706,-0.05355268398245244,0.06802161054504495,0.0238501502495595,-0.03557175168013034,0.025572146073518178,-0.05041798310076715,-0.00815226731016459,9.879535296707667,4485.383143076593,4479.728757625152,4501.0245725246405,4467.3826218341155,0
1,17.5,-0.05429125644425928,0.03396866414782517,-0.11487940351586562,0.013326250018184238,0.009251825857079024,-0.13806453830324775,-0.06775646523356552,0.11941094030473726,9.613766893772064,4486.067872130719,4513.861826797557,4523.501715278478,4492.453833418665,0
1,17.6,-0.02987550973458208,0.07111849308492539,0.1738899663797579,0.01957716101563591,0.0017063628513004812,-0.06466125773127411,-0.08304444065565653,0.05225141052657575,9.893679644177737,4542.0479577883925,4519.513502776084,4454.907590947206,4531.558428531687,0
1,17.7,-0.04990303136572065,-0.019198563597617582,0.025020020625169448,0.03991334979567929,0.06219837112010722,0.04853784473089462,-0.018319661872038786,0.05345056484805503,9.987531085174767,4490.379971233284,4553.85634067737,4506.902122775742,4514.932292672742,0
1,17.8,0.03329621260272307,0.021079330530722785,0.08389405004696122,-0.012345063730938464,-0.011166035078920611,-0.0880123386377356,0.043950123062022645,0.07789365035121142,9.901554573230378,4550.234773000426,4499.832119435128,4520.062249667775,4467.24897371582,0
1,17.900000000000002,-0.019354985123720053,0.03477688787828888,0.0849102110743144,-0.005879338953283645,-0.0014319850371613365,-0.12142989973446476,-0.03570292008066094,0.08903831635197862,9.925041003221313,4515.019971641436,4501.493210615429,4500.211894758845,4480.190365815796,0
1,18.0,0.03494142101012674,0.02104864721946949,0.04920188479927993,-0.010520696853351608,-0.04306685839742489,0.08777221694029566,-0.04788374560084042,-0.08627757640431206,9.9486957823828,4488.2396208024265,4531.798091521398,4518.510178487301,4520.507079696014,0
1,18.1,-0.06829778556002672,0.06059719926932003,0.026125053123385606,-0.007385542784924063,0.0028677693468450215,-0.1420988186318656,0.04086528114806709,-0.10293715081820716,9.539465942831294,4454.329224413464,4533.380651249698,4481.122098189217,4546.011831297495,0
1,18.2,-0.02679007315261489,-0.08536789787964734,-0.11165244399486592,0.024716232400138774,-0.0031179635587333505,-0.04386298371924807,0.01600182258527877,0.050178273616754504,10.033479763180493,4543.454976896788,4489.206940626327,4460.218569417539,4487.596045166301,0
1,18.3,0.013014025329144308,-0.04818794631053055,-0.0957150914895043,0.006875757630997709,-0.000973047031409023,0.0026237596329269208,-0.07584953347000695,-0.023040071420576735,9.62515337114634,4526.705952333744,4531.057480041713,4444.614364132857,4472.1146741942275,0
1,18.400000000000002,-0.07482646275450396,-0.03250119672034491,-0.008343796979036087,-0.028992904393970603,-0.018437196262506263,-0.08031658976651988,0.020726732939894396,0.006934433703625043,9.66565248933255,4505.304626164182,4483.599597462382,4491.850346690218,4550.203562708956,0
1,18.5,0.06702305258951739,-0.06497906184637989,0.08297324178791746,0.01622793108983184,-0.022965265775052365,0.06550221150038885,0.15379319184125528,-0.11225448062444139,9.626499435797149,4530.529844005305,4508.14485932477,4516.544288257186,4510.217676492015,0
1,18.6,0.019534796046407208,-0.06632360641555415,0.10473177066214484,0.02339179984855547,-0.004587814881360556,-0.0034781559851089945,-0.15311075025557222,0.05142547560178349,9.924411488342828,4498.13426949002,4533.730600796115,4489.977683070601,4516.938177776808,0
1,18.7,-0.05098321693460578,-0.001177607543711906,-0.017435425790283586,0.004506158440818832,-0.007390538576667172,-0.010517807653733424,0.08260471714415063,-0.043676423723821745,9.488684579852265,4552.487517126163,4541.4436223607145,4461.232119146832,4520.691234157356,0
1,18.8,-0.025148738527567157,0.013174360766552979,0.029422412901349372,-0.00468815600632644,-0.01567531331172793,-0.05524328418530075,-0.09161919154812426,-0.08318222082304448,9.796564341990129,4478.527200326677,4520.461561971379,4544.617384660078,4482.598402758898,0
1,18.900000000000002,0.011970225026768854,0.024984255515146693,0.04720022709192744,0.0015191053583217481,0.014853648367194447,0.03857991621445258,-0.12376624223272979,0.08691560643892732,9.98745816745335,4477.101416874642,4501.138135063428,4520.499869784332,4493.72058541262,0
1,19.0,0.05364890238830059,0.11819362473096805,-0.07859860326349824,-0.027620892063075497,0.006076371912097514,0.05772500041009148,-0.0230866373844769,0.14532606633210343,9.542278840055351,4520.787558690949,4481.824175377234,4551.581337186219,4559.775460595043,0
1,19.1,-0.0383328293891674,-0.02747785679542901,0.0859587886979802,-0.0077426129957902925,-0.0009082243586447644,0.0020310736433928147,-0.19196731561976565,-0.001383774609423725,9.672054445187166,4485.206315328007,4543.308960104065,4462.304793171622,4524.39615560244,0
1,19.200000000000003,-0.013948146516590426,-0.01398800842479172,0.07903718960517114,0.006801025891377809,0.011412259944390619,0.07745477284262889,-0.03313083831833227,-0.061223673450775035,9.59296989468844,4475.237684100632,4588.472832759262,4537.340387422104,4459.46776901376,0
1,19.3,-0.06612289783717851,0.024093303085924576,0.0547264797377967,0.010977676706347288,-0.005099115871073957,-0.010036340800232017,0.03278795241593574,0.008589300629333042,9.366139925450494,4493.106011082744,4474.45780697219,4505.256342567255,4589.557770078102,0
1,19.400000000000002,0.01837408327371522,-0.015676484308619894,0.09218015019772523,0.009653757744184253,0.008401889809036826,0.04854804745725368,0.20565435648295416,-0.11308884353259158,9.904726415362292,4472.208566100554,4516.665379390268,4472.439404655417,4487.478995591848,0
1,19.5,-0.014754495711895316,0.048790835967235456,0.09184544439424139,-0.02491434752892769,0.0010986822199969745,-0.05676638837993381,-0.12585049106753346,-0.02170170504243704,9.748303442308837,4572.801494590366,4512.988794760821,4458.671474977373,4483.056779874872,0
1,19.6,0.05106916477146992,0.10442213864349625,-0.15859833122379585,-0.0375984877027809,0.03741930350743564,0.03116913418967231,-0.08682927318763665,0.05346290861224354,9.282850452196625,4500.1012651979145,4509.834635185292,4527.728104186135,4469.583121431224,0
1,19.700000000000003,0.0042843580701679524,-0.04627123130297937,0.02553837556743171,-0.017906926447260482,-0.008162016783204412,-0.07966523158321832,0.0651136241823657,0.08584511166566654,9.763075886008517,4501.147139848801,4456.542257560994,4491.009700559796,4498.493861488748,0
1,19.8,0.13103965455149877,-0.05559835128870819,0.14641772387524374,0.01993717546931616,0.005612728089802728,0.14068963873561066,0.03721054726068629,0.03891591956679288,9.799375869396492,4536.707066472559,4532.894077014326,4481.229681375114,4460.422584162037,0
1,19.900000000000002,-0.010149031869782854,-0.04000192821988233,-0.00635245746153551,0.024748762693682785,-0.0091460331017358,-0.0034258705049259905,0.005802273480839523,0.08484308822052847,9.36062213320308,4481.798991157041,4506.338510768384,4536.002368692806,4485.242926574814,0
1,20.0,-0.0938276353020937,0.030985572298306813,-0.06353623888256293,-0.023793333181807225,-0.01248690779426448,-0.014762028612467963,-0.06047446645382128,-0.22055660570990693,9.989413239377427,4538.246251238362,4519.545659740185,4465.869429887255,4493.955253981574,0
1,20.1,-0.00032606576147290313,0.02993971947809551,0.06683404887180809,-0.014683475975569916,0.0016399111282712085,0.03658243236921929,0.14558223221467667,0.07045065398247231,9.967811337475105,4502.514798837881,4542.313774356106,4512.292883878785,4474.167362694793,0
1,20.200000000000003,0.07016849850625954,0.03489516362695138,-0.04430440211284823,-0.009589859347984868,0.005931510902815236,0.03705478362140678,0.019729226563120646,0.03113086734428849,10.149991474915277,4532.146294567046,4505.71906773795,4528.239317423025,4469.024282894174,0
1,20.3,0.01989635249734045,0.09046531748665551,-0.021804589539237387,-0.016952678572381696,-0.013041777771861215,-0.08717064298739106,-0.07847619081277035,-0.0370508098590029,9.528886596164272,4500.468550018488,4527.0683152136,4472.767314595592,4545.578517709253,0
1,20.400000000000002,0.025539604426379738,0.05152902928120287,-0.06578345538521371,0.017090504541332315,-0.02183867800790626,0.0712198000669207,0.01718393397935312,0.05532512199847837,9.57488107887503,4473.147904731702,4517.916846547601,4471.549559873274,4513.896188762974,0
1,20.5,-0.06835689032301229,0.04240871063333341,-0.12325233147685091,0.011045998753590466,0.012512618672920018,-0.05574174547436599,0.05820265670847269,0.026044226333355597,9.702231628761453,4469.743359477714,4441.121229249823,4510.489501418991,4453.055916859138,0
1,20.6,0.0047672099720654105,-0.013172410804112456,0.06791427754381955,-0.006040909989797284,-0.0065889557269418276,0.058549656343063645,0.03350580290841176,0.03161559571827783,9.903853517961705,4453.932836303787,4522.703660399609,4518.374063820408,4469.499506142705,0
1,20.700000000000003,-0.012204023683710066,-0.0019653643813815594,-0.013449678440173272,0.006677199331370694,0.02862733563662367,0.0865413382138263,-0.13122191934314062,0.06220699903060487,10.075786663907083,4511.604255620676,4532.729412755579,4560.368113371023,4530.71128638321,0
1,20.8,0.012465429782086444,0.052254423704237676,0.01448878330968912,0.00047806086569910944,-0.007028284714274651,0.12507306870656865,-0.08184286659420015,0.15323677246781162,9.909972824748074,4458.0208147559415,4511.029478789743,4436.999204770451,4518.765240504931,0
1,20.900000000000002,0.044261574149449555,-0.02961779778260268,0.012354769595558234,0.03908314867500572,-0.010114934085238734,-0.08471260696452804,0.14816634024625988,0.19625871905307948,9.81073913436957,4530.343891062251,4540.244277465927,4477.725473023848,4485.440824938964,0
1,21.0,0.06154372565773675,0.08425071393542548,0.056288086017435485,-0.017596287070041086,0.03974122223398883,-0.04247767182495716,-0.033513778117145177,0.03423378344896215,10.120832084142956,4525.619279296567,4512.445965010857,4513.898655903543,4501.305440059304,0
1,21.1,0.027906975725925317,-0.12647800388471517,-0.029660745906979837,0.00482643869833562,-0.023020281672390144,0.030905865424924798,-0.020447122098612155,0.175547569831549,10.124603945042972,4486.025832926455,4495.474868652999,4497.781573031748,4486.450215715211,0
1,21.200000000000003,0.009751249201406338,-0.03791410344437951,-0.11306153349375264,0.012454224478005371,0.012590591684436216,-0.0643452607727994,0.08953554307625997,-0.06315777291653314,9.860633047607596,4524.610320378374,4498.991623058889,4513.642227364234,4484.507110683373,0
1,21.3,-0.00982332917140486,-0.010292971544017019,-0.0746578346540239,-0.0035354832623156417,-0.030972365977274933,-0.039292299771368375,-0.028487549336967084,-0.025617975249538013,9.761700510825845,4498.147074004196,4514.383245542582,4526.235512223976,4480.507043194552,0
1,21.400000000000002,-0.060160042769457224,-0.05210222061215515,-0.04872029211949272,-0.007038426356330182,-0.015399921323949146,-0.10368933313999155,-0.04561208274741882,0.018142662011397137,9.929005893167114,4483.27730840675,4487.610065335697,4472.199050734581,4499.056824888757,0
1,21.5,-0.042421431709540734,0.028656390662060008,-0.17858664919341113,-0.007192593449049248,0.0060221467838348424,0.014706761305800349,0.2693033663980497,0.034980002456790754,9.609189080631598,4497.136072587327,4446.712609996006,4497.582007521097,4475.008318289977,0
1,21.6,0.045769513778008086,-0.027477013729776747,-0.011676591579524664,-0.012711156828088068,0.03477702703706663,-0.025699421289432936,0.18325570434792018,0.08141517621182666,9.906413345467078,4511.061994419526,4511.813918946487,4442.169822619631,4491.633498175477,0
1,21.700000000000003,0.04225789855921608,-0.0024448591737052773,-0.1405189846803575,-0.0010480890115493891,0.03408211032510983,0.09975133724277756,-0.006200400936603175,0.09514492770580867,9.73669859592639,4448.883852395198,4472.266020356114,4546.886663055246,4491.780207545121,0
1,21.8,-0.012169198968750905,-0.014991909813744028,0.1904136589573007,0.03251917830724126,0.044375604668962676,-0.012723616832004103,0.029562448874709508,-0.15166425494207914,10.105386885223655,4464.966613461962,4506.503266912879,4467.080924171015,4482.333995197839,0
1,21.900000000000002,-0.04186312155248502,-0.030393763033790894,-0.05391227031489786,-0.010965375898501542,0.016666678235606143,-0.08838902344500162,0.022054142701386687,0.12179591523055584,9.70736072709732,4478.462433277572,4493.084261244592,4535.391756250821,4505.823228928601,0
1,22.0,-0.026560714730379926,0.02419383255940199,-0.11022921498364234,0.013627190208858959,0.008172146154035352,-0.02462467769111073,-0.08385857984472311,-0.08866809222834574,9.916963467269182,4536.869415074671,4480.880767589136,4513.7516011065445,4437.389189441938,0
1,22.1,-0.02923088653285998,-0.0015529466435450978,-0.09096834169818337,-0.01873012749579192,-0.013355591129377724,0.023375418266109855,-0.01873290184063747,-0.2238231233324972,9.385859969472987,4481.794044664285,4513.730597581606,4417.574854718243,4485.008094715451,0
1,22.200000000000003,-0.026312392825871056,0.0694168889104224,-0.03850218117128637,0.007659779694818569,0.0028251428017492647,-0.17044531838457605,0.07682072166317373,0.021539650545628796,9.911653727934919,4617.787131193089,4437.476611815042,4551.740899492834,4491.376574417989,0
1,22.3,0.014366445220150466,-0.0022756122650621088,-0.042423633339804354,-0.011396658564775175,0.006590174711460183,-0.12137389573373433,0.07505791675217656,-0.041619440488525394,9.58398613219193,4486.499614260126,4537.714476505877,4483.939947389514,4510.753608546289,0
1,22.400000000000002,-0.03654781378577367,0.03789609249618098,0.06855077387902041,0.03697217666592823,-0.00351127890998431,0.05349238438063253,0.009806753953894456,0.12958717818630144,9.666233522478255,4522.350159386318,4494.1590811165,4498.074354686745,4502.7525745334515,0
1,22.5,0.012612019821333871,-0.005811452156097909,0.021471318317052637,0.03156236115124369,0.01970899371230437,0.06953236739975173,-0.04555395260238707,-0.08892408282283243,10.00106011164755,4526.2814037758935,4544.180120272529,4481.880581220923,4493.11354033919,0
1,22.6,-0.08197420812627171,-0.019623555303043647,0.09965705105794473,-0.00932990758456396,0.012809595904016476,-0.015240248479824907,0.03240570282215607,-0.11476913898156674,9.82704188992678,4410.265920872978,4494.39311525514,4451.085802688546,4536.179835496405,0
1,22.700000000000003,0.038870367638225566,0.023333549098304054,0.15210062271593802,-0.018978330416496745,0.034947263958311166,0.07457532514083078,-0.023655528721894605,0.11356201471829441,9.588741297517673,4475.2645751541695,4481.742308302809,4484.13066875808,4468.303270717192,0
1,22.8,0.061154153354766254,-0.012942720018491583,0.035250496835687956,-0.011407027328273612,-0.03641206601097034,0.021604588671313766,-0.1912254975419777,-0.006863404608546861,9.536336992233439,4559.618279976924,4527.340881665242,4503.172613738145,4537.91120032964,0
1,22.900000000000002,-0.04231579887328679,0.027173968933504652,0.01998104337187135,0.0052804016266734,0.025447070002135357,0.05859936822238418,0.028872366282502327,-0.16548874362282961,9.617990740944109,4496.318731992128,4502.8011712283,4466.093888259782,4572.350300267352,0
1,23.0,0.07581970276267865,0.030105916019624174,0.007203686128374476,-0.004244179398023034,-0.019038369200444712,0.006198441481509003,0.025775254014275068,-0.12417605754816244,9.87683528344898,4495.342228535257,4442.765773263678,4474.188449676615,4487.5918339973505,0
1,23.1,0.09438438286700952,0.02782765622668791,-0.13354815690998914,0.00972072578835274,-0.030946079778767312,0.08661528431096586,-0.04711246518178786,-0.009363618873917085,10.075159329508438,4461.3850929424725,4458.08645444661,4482.49202020962,4531.15136553058,0
1,23.200000000000003,-0.07596730377384213,-0.14160777990552845,-0.04511588584089988,0.011034815998218409,0.024005234994776584,-0.03705290896683192,-0.04114266071160025,0.11539007342557472,9.436051660060917,4488.34437674451,4505.712716697752,4513.476561638551,4484.705799204274,0
1,23.3,0.0017220505852920676,-0.12441636767064948,-0.06582484123338483,0.009070174251089348,-0.01964588068509359,0.00471873772716779,0.0446872500802698,-0.0342549200857765,9.844092754199314,4471.118023041462,4493.801661609119,4518.306485087676,4504.709188829053,0
1,23.400000000000002,-0.029326563478196777,0.011210820214539651,0.0714609790636618,-0.04099882557154956,0.023181481299117953,-0.026900379094485758,0.04254899332402303,0.1197246923645228,9.535665260553907,4478.716769927174,4491.343539123729,4476.487394366267,4552.048097275104,0
1,23.5,-0.04283860469133964,-0.02777733897434333,0.02043890316029768,-0.024042990521521777,-0.007913614235125276,0.02539626090001401,-0.033286040438251126,-0.009338685889994829,9.704133577510326,4454.565890724577,4509.647796340178,4552.647992149417,4500.552048923503,0
1,23.6,0.011263205862377477,0.034636137755842976,-0.12693304965466992,0.03405029316259211,0.0040465759284560405,0.13054855192712872,-0.07330329955239893,0.18180619225578248,9.965031098806957,4516.591202575571,4507.020733630595,4492.544141457766,4536.015949754216,0
1,23.700000000000003,0.007017993492402348,-0.09835348517935762,-0.11171864617070025,-0.003716915043854946,0.006199979663311102,-0.0045270791119916675,0.12189707897936633,-0.1951101864038625,9.838717587301032,4445.460623238386,4522.791368864525,4497.16623856674,4512.588299160723,0
1,23.8,-0.04319414802948831,0.06397324658288756,0.10417246640588514,0.011670886060237752,-0.0025903449372688156,0.04638858282361057,-0.07068925679873489,0.08555556590207121,10.139896178864785,4532.118316799376,4478.111925905778,4510.8425195181935,4461.205753687241,0
1,23.900000000000002,0.028619515558783788,0.022530170643126943,-0.18698163395321643,-0.023235676878247277,-0.005662777934875343,-0.0240687797712661,-0.12094769354188054,0.038897872935218375,9.860294721788103,4494.171926040644,4477.326254995249,4531.461213792497,4549.6622133926485,0
1,24.0,-0.024178074192326857,-0.03060834585774104,0.04912076654119963,-0.007160587594939725,-0.0027879440132646833,0.05917225213797371,-0.1909356087507293,0.13183023248526693,9.824536104865869,4487.655205663134,4497.322975373357,4498.872880650615,4448.063960896652,0
1,24.1,0.0747469113726618,0.0020662816135309232,0.044300213044737524,0.019030995411480855,-0.020423249151206004,0.037877751922818274,-0.02676410908987936,0.08467707752164938,9.384554515929702,4497.027170992762,4481.915380326481,4512.967888519025,4514.101325621046,0
1,24.200000000000003,-0.035381294741101306,-0.03560869320880218,-0.011066536855732945,-0.017932844546304165,0.01683967390904254,-0.02953657603579569,-0.2906988219321642,-0.037482205662180614,9.602291235831206,4451.061725536171,4462.877200853322,4503.2822541549895,4539.859224847447,0
1,24.3,0.015659223693249,-0.030325169410786987,0.04559041951707027,-0.009181806204379835,-0.013892007383262892,-0.09234901345863876,-0.17518288067517193,-0.03899237065594453,9.841610697984027,4497.101289899553,4487.52099216158,4471.627618179096,4518.247385750549,0
1,24.400000000000002,-0.06585659599732925,0.03880139569217377,-0.10022170189267249,-0.0150487047470607,-0.02933570381231354,-0.04011217175085093,0.09753124584779789,0.05156280884439565,10.005684422405608,4515.664276378018,4466.8899051440885,4490.076323270173,4476.594026126476,0
1,24.5,0.06652874520195201,-0.05983943232131558,0.08936976893891109,0.017859077402175384,0.03659240403432174,-0.03277492741035979,0.07123221595801621,0.22816518365388427,9.686471664613261,4453.9487925740295,4443.599698982767,4521.38136086584,4443.505493758243,0
1,24.6,-0.018615952646896142,0.021865659351948036,0.018517553682991406,0.008508897283683446,0.004445797116017081,0.10230926506507146,-0.0952316380738797,-0.06769951384585314,9.655468110945836,4524.905754355878,4527.011957651852,4513.536759579555,4535.504810006698,0
1,24.700000000000003,-0.05890204336881904,0.08336120557755686,0.15232386217122584,0.014712439944914935,0.0356359781754212,-0.1325298566142219,-0.052444813626265185,-0.07353034606819524,9.954295864751469,4468.495777811936,4522.724854480124,4541.116084319901,4520.85608700252,0
1,24.8,0.014187551183075056,-0.04939366704503746,-0.08468509661253647,0.024992378105933334,0.015586980078106648,-0.0031215615502035296,-0.04179095457658906,-0.2025807873111377,9.595829516263112,4557.342572614191,4461.586332869926,4505.6843946366325,4530.223319195856,0
1,24.900000000000002,-0.06274613340011463,0.009235523739054166,0.09379155375106552,0.0002499864381450067,0.05736806111333537,-0.13348794071025563,0.10587285298838789,-0.017280173739646437,9.964384030967336,4513.2392145509775,4478.0053140867,4506.86989177378,4444.262956458051,0
1,25.0,0.03016237502856969,0.014907923299526282,0.06386601686431025,0.021162366501743003,0.007352396804194218,0.011847153583862097,-0.08810683366612923,-0.0712220763649051,10.047346924035466,4543.090062171179,4492.856686910638,4501.380082417598,4472.861568750187,0
1,25.1,0.05863784226337224,0.03327084118458894,0.1941217436463749,-0.01756646154359478,-0.007560157980364344,0.018515673802045784,0.06464895377257707,-0.021566763754763234,9.63540778190926,4526.442225867707,4521.634060876368,4472.511776983089,4540.663284033165,0
1,25.200000000000003,0.05850993545983019,0.006714824862389644,0.00795978623760364,0.011081155422318143,-0.017234061405125164,0.002402518333126574,-0.21523835446091805,0.08764556455029356,9.497701355511628,4545.1025948528695,4490.096397181006,4493.649990542065,4481.167982817465,0
1,25.3,-0.01440194369610382,0.07092656725740183,-0.24878086565350796,0.025539307721763757,0.006760469622034164,-0.09656173182857725,-0.1075312393049238,0.1676393027208203,9.620898624011454,4465.3994846821215,4534.119436270942,4510.156586288577,4471.862232703908,0
1,25.400000000000002,0.01083124877023095,-0.05128763418201387,0.11008213984226052,0.02122741929746267,0.010640123976438862,0.028932884899761327,0.17611881248673739,-3.136726117747121e-05,9.57362517491584,4513.484217384969,4562.581411486113,4469.557215204424,4489.15611699918,0
1,25.5,0.020822301905072633,-0.002695242450286958,-0.09823035803773146,0.022437157124609416,0.04640081444034519,0.015690516721912587,-0.09040682897360003,-0.15489605250534752,9.861595196244236,4533.116320299488,4514.255032394862,4499.9278847724345,4482.321850446321,0
1,25.6,-0.05460818163590449,0.04173756631624411,0.09137716213855857,-0.030914595733814665,0.03179677956361368,0.045925697671520105,0.13995946451457936,-0.13421277484851152,9.536835168916912,4495.530920706981,4515.083532806856,4553.890824687809,4521.182367414454,0
1,25.700000000000003,-0.012134063840601667,-0.05131846038329461,0.12300005727191501,-0.019294108515014296,0.032569371095446435,-0.022750771968520746,0.15905820726178505,0.06789312900592784,9.78260090211151,4484.418108845216,4489.772763679618,4512.849500771257,4502.3146948865315,0
1,25.8,-0.029690570403435257,-0.008281570515881612,0.00785770297191498,-0.042574681888296245,0.009163362295773974,-0.07837769797734455,-0.11533324032057451,-0.16873443471107105,9.451221500426422,4459.3365749066315,4478.729371271085,4558.597774125797,4484.223609723143,0
1,25.900000000000002,0.008887505313401567,0.020024069325316435,0.013106518621584873,-0.001548869214519873,-0.023905875271984893,0.11607420386233695,0.18071966436378853,-0.1682658694122686,9.605194281822724,4491.60568972869,4471.063866152695,4515.178966603676,4478.151833927802,0
1,26.0,0.10825280339033012,0.05952742971717981,0.02125740306322149,0.020539725266394644,0.02211800848714618,-0.04511579904465946,-0.08162172445419648,0.007814306296964744,9.982327224899588,4504.171811959603,4452.6901055342705,4475.915266681474,4497.780814092169,0
1,26.1,-0.0037832802162915133,0.09862710883949041,-0.13859879423989982,0.010111784836717493,0.029782262166565793,0.1817159796338237,-0.04043974231839613,0.04914294527201998,9.92395207143973,4505.864451946599,4497.034643962821,4513.079261685001,4424.032617443409,0
1,26.200000000000003,0.034103474503131566,0.0063088951830983595,-0.02224748967782654,0.04093724391439116,-0.013498680375811046,-0.03224607912520246,0.1991553302204734,-0.08320613048498567,9.699976943412693,4495.589237297075,4525.222034463886,4506.234075220599,4461.221239585432,0
1,26.3,-0.026608428156359477,-0.03036772166061057,-0.007722104522304558,0.008516873172596582,0.008364115117759443,-0.14208094032387217,0.10639409875608562,0.02525688459966235,10.086906409518782,4513.32594981872,4533.039688732073,4513.996359343504,4540.386772686083,0
1,26.400000000000002,0.02611253180088893,-0.004895762322145203,0.2272434720446882,0.017780742445597842,0.011474888420088264,-0.10210435332306687,-0.12883076174635377,0.02927154821418534,9.839104239553649,4481.5763230497505,4504.2294809883615,4547.658807841308,4520.862074236509,0
1,26.5,-0.05705042548763692,-0.0055754413571471855,-0.08049664808525608,-0.0077539983281712235,-0.008272313312592854,-0.03821164660832042,-0.1255135371973395,-0.012765468151819013,9.697878472630538,4412.116539299932,4561.5891607350495,4532.663089626501,4488.71097825225,0
1,26.6,0.0009409524870299213,-0.05858271736587809,0.16957228778108654,0.037945773895462234,0.003133874564930492,0.08188245153482758,0.017528677893392387,-0.13367254388759306,9.727635326207269,4503.957839003158,4486.363568437697,4493.440401676949,4497.258013274726,0
1,26.700000000000003,-0.004043924893273066,0.0026129245248741606,-0.1060605066396601,-0.014340322982558724,-0.025691685313999388,0.07822524397489602,-0.21056469418403245,0.11535903433169255,10.087269879452569,4490.934582390521,4421.905887365181,4489.160683140981,4498.074475161336,0
1,26.8,-0.05052991099644567,-0.025760919690412137,0.15301951988633514,0.01329854324603482,-0.018491282287562,-0.12780793356763456,-0.03270173176097711,-0.021345677935043827,9.909239837472663,4483.94049862297,4515.344987260856,4558.054621201807,4524.465030673328,0
1,26.900000000000002,-0.0024044253665386293,-0.009157523552664734,-0.03566731341798712,0.023612818249042895,-0.012546268919026058,0.0036178167199986053,0.005119790188108535,-0.0501784192811532,9.53550689042318,4509.68923510853,4498.169880844339,4515.007214083097,4483.991990806825,0
1,27.0,0.061041064940652395,-0.04383868906059224,0.17120402840178928,-0.03495273019656523,0.008695401291137824,0.038034454602129876,-0.07955570679408824,0.04243939378610126,10.065903733952032,4433.495434819378,4515.082344224725,4425.2018753900975,4471.030055894304,0
1,27.1,0.08145831824504726,-0.029089101669602702,-0.11738799644089726,-0.003958754579693638,0.041358126763271046,-0.1465345797764821,-0.10513099116393446,0.14974316831796264,10.181540468707547,4496.897063271292,4462.8284189242,4562.875305054275,4547.833271752476,0
1,27.200000000000003,0.03394734938811165,-0.040620117446871,-0.0049029340838036735,-0.003207201620896615,0.006617026092311556,0.11608011505050689,0.08794170411374032,-0.10773760769847583,10.085299290003908,4509.393964200394,4520.611973875767,4543.996225778358,4466.652592514593,0
1,27.3,-0.0017912789353231467,-0.026572727567960752,-0.1567859425365456,0.006934199552098398,0.05023113103168847,-0.14720621956046023,-0.003228061104947033,0.06405429350747735,9.834615640331236,4496.606158424528,4461.023509096625,4506.983602288205,4477.297080689522,0
1,27.400000000000002,-0.10949608524892768,0.05972961102568654,0.09583858198420425,0.001033219537021596,0.004581493764114051,0.08594544101724491,0.02243396567780826,0.09040175547613144,9.75050355982523,4539.359512157218,4509.623571777981,4505.8215583081765,4461.898167338639,0
1,27.5,0.014347792715085437,-0.041597745874722564,-0.06382827265284942,-0.016307512566322423,-0.0213246986379845,0.1699817122413569,0.13313390619884033,0.19203675021442612,9.565420996088887,4502.137612497327,4461.194771243877,4479.129153684088,4472.456190497503,0
1,27.6,0.06197920032207808,-0.019811483905087995,0.10683793336940164,0.01208241779177036,0.04607277504209578,-0.11835553785117792,0.1259233239786799,0.11464408704007277,9.615324232394594,4530.2140000941945,4510.084348890787,4493.175712201398,4475.28193539084,0
1,27.700000000000003,-0.0359554725724593,0.10249060478929631,6.82818957482628e-05,0.015642600030629183,-0.015817987633351065,-0.06238823569773111,0.10819848092499423,-0.13495762115515322,9.726957246418946,4501.020822332167,4503.341178055201,4494.627201449515,4511.874593432878,0
1,27.8,0.034642787790890577,0.0367318772729665,-0.09858038086678267,-0.005683101958575944,0.023895257237538756,0.07157177500590979,-0.1372859451481064,0.03514799003522017,9.414354950125038,4501.408047061811,4556.933010502379,4471.563218481931,4474.970308635253,0
1,27.900000000000002,0.03820148907864298,-0.0771400757604823,-0.06327550298850391,0.011928822751635053,-0.012685716953788062,-0.01887759897687773,0.07441857103150346,0.04215460835365613,9.86336367925908,4489.826331621899,4511.1018334580685,4496.288019597007,4513.734168297774,0
1,28.0,-0.024846601255898913,-0.009128448718977056,-0.0989957792552014,-0.000700152200124718,-0.0162200172725769,-0.08912371601295947,0.025866114785538814,0.021273977585766032,9.966574746989714,4487.066232912747,4512.241585405102,4516.52392716821,4513.3432142349475,0
1,28.1,-0.041282684140107107,0.007468174113559445,0.036414029605466136,0.00014356933815883884,-0.0417295531674217,0.012839169917878406,0.22125310393972422,-0.036003926875698276,9.664384580428937,4511.200456791342,4509.3713463139975,4535.782054962492,4462.263955322734,0
1,28.200000000000003,0.03656901262874962,0.029521103062573176,-0.014214653694054611,0.0067737463584338,0.020589149631967146,0.06978523040227602,-0.11430193120737286,0.08201581867554845,9.797062278993497,4502.186222940465,4502.1959097300505,4495.492710336052,4535.751224913212,0
1,28.3,-0.004185897992460601,-0.055977306419158435,-0.03935298559697289,0.0035738943362095123,0.024584295685941008,0.04824757479590669,-0.0850535278747044,0.24851899166788916,9.862955062195596,4538.2617221399705,4495.4485669926835,4516.0007773411635,4525.184055135552,0
1,28.400000000000002,0.0609097355877128,0.052868415268911256,0.08721970000729778,-0.006301734623882172,-0.011434920839121229,0.026608600825935805,0.09331280723410694,-0.022272070077660706,10.023034393142877,4543.578502364586,4472.510372427798,4474.892378886112,4495.78874823284,0
1,28.5,0.015380633409459821,-0.02622835068835255,0.13522026788671446,0.008481337230369024,0.0007889409648147898,-0.1148727619094822,-0.13158158164275072,0.02810092502818063,9.383480874769033,4530.379122289322,4495.255384668831,4597.292789087842,4569.237487518483,0
1,28.6,-0.009072453462375838,-0.005316850126565749,0.09955815140020298,0.03406345219836076,-0.03276058114872034,-0.14291003722837492,-0.062203480555438145,0.05827375831738644,9.90937471810152,4532.093143649516,4464.00907414904,4430.515684110934,4525.740425859064,0
1,28.700000000000003,-0.04140981364826173,-0.1009243932194319,0.014506374595938162,0.015863513764373546,-0.0024411426424255454,-0.03662787089459914,-0.015936223214590657,-0.037058276240078285,9.540390577611968,4478.559579690287,4515.638397150415,4509.650356241295,4505.041794179005,0
1,28.8,-0.04975742409266898,-0.009075158106783358,-0.21770650464428548,0.003569533277707795,0.028577154156271347,-0.11793057056336846,-0.058592767331775535,0.032910677871012955,10.060568526885497,4486.553261510995,4479.232490122023,4440.932305727518,4503.103143879243,0
1,28.900000000000002,0.10210380200718722,0.013867923098233795,-0.0022278979183713316,0.006441646215339709,-0.0002218400789720412,-0.0650411497808104,0.08232799156777054,0.02257615231117544,9.813522650386732,4470.739019181652,4539.105237958042,4519.941082359994,4483.412374878981,0
1,29.0,0.050091242684096864,-0.02487854191926036,-0.0782003492511037,-0.015194062349605741,-0.035421371061761825,0.03772339043345646,-0.18311448783383502,-0.12284438312657626,9.394882398184293,4497.417909216273,4495.490386191844,4490.199113604409,4468.722669159883,0
1,29.1,-0.058611687671832,0.02321849317732871,-0.055055193170848775,0.006327166430722895,-0.01770497372248445,0.014485019421686587,0.13032780373160638,0.05861658003927833,9.727517236356704,4507.715969110678,4492.780044764094,4500.236405540842,4490.231668435545,0
1,29.200000000000003,-0.00821676029426956,0.010604667653708762,-0.09933586995819507,-0.020317576539799567,-0.02777085107662422,-0.1280216883602968,-0.12172826922204794,0.01594625068041292,9.631442496901624,4515.408433926933,4501.041412462577,4440.944873596858,4519.649267526651,0
1,29.3,0.040539932279585494,-0.04969313374174267,0.042019154289499164,-0.01712996474818398,0.001953407534966708,-0.10115987255639725,-0.1793106452534577,-0.03828171896129687,9.785254210745034,4488.0696091915615,4464.479083253324,4488.003028136066,4508.078842577422,0
1,29.400000000000002,-0.002244651506126849,0.009125051529960671,-0.0670115200454233,0.023434358294323193,-0.023523466731095614,0.03900482376693749,0.11818910929599616,0.04809080927488954,9.769495154587034,4484.151088600111,4531.082629531387,4457.31075224215,4470.896272188611,0
1,29.5,-0.019877888274586072,0.06188268787559991,0.03797676360408961,-0.01936091517020491,-0.006206154107698073,-0.04914585152770355,-0.07097889922335351,0.09788895585567792,9.5356513741473,4548.263425672031,4524.8468907055385,4532.725850118111,4486.111814639242,0
1,29.6,-0.007497035953955468,-0.0716575907262356,-0.0524662407066803,0.009873096952863017,0.025921261235627924,-0.08857254534419613,-0.03655059369852658,-0.015129922023252232,9.530842159561503,4517.740477252752,4478.280290047722,4494.1382894646895,4486.441518842644,0
1,29.700000000000003,-0.03946692528598372,-0.000352249274027735,-0.02156095785680224,-0.007437157645573312,-0.014569232433606857,0.025561973662636434,0.1653617268492285,0.013988723283912739,10.009223642982226,4458.293342245396,4504.732843178813,4467.078950430868,4455.692252174043,0
1,29.8,-0.036968570372951814,0.05959496672067865,0.09500158286696457,0.004860094441087994,-0.030654011197798616,-0.015702452111034944,0.030170000890173555,0.017553622957859793,9.441241283303851,4473.2904645594035,4498.077667075539,4516.088727285516,4434.1161653670015,0
1,29.900000000000002,-0.008106198773992922,0.007152438493947618,0.08496119885162132,0.013857151684748735,0.011651426376176104,-0.06399524053615474,-0.19080021371233077,-0.0393052757061401,10.010326365041713,4541.803635825733,4521.316473068933,4512.880224684052,4511.389189451579,0
2,0.0,-0.02780593733803903,-0.006503014677681002,0.1669069525826331,-0.018851160115837526,0.03229557581419703,-0.025762252359364673,0.13254321090950785,-0.14068150094975382,9.92718084023293,4477.896895921572,4457.541984242274,4506.5560212723285,4530.284153657879,0
2,0.1,-0.04224707192967482,-0.07495079802292007,-0.009184476433495513,-0.0017487065755436215,0.010966392551089974,0.07596756570915907,-0.00594151812724941,0.18555033147942632,9.854846948907058,4489.607204819793,4451.652979226915,4492.120214390515,4489.908391637666,0
2,0.2,0.04801523981407352,0.023124181203342704,-0.11793691216326173,0.00344508772822075,0.013430623434581068,0.12224250875102662,0.08875039674140595,0.07608466543114778,9.822017198923033,4511.6493601627035,4537.485147021185,4460.016678075611,4489.516820183491,0
2,0.30000000000000004,-0.03862843743781204,0.018957655936306207,0.12302221756507876,-0.011939485734421478,-0.04780608734938876,-0.032977659601957615,0.09134737320174066,0.05376299029498797,9.895637249562116,4491.600200943765,4461.629077913406,4515.458829648734,4474.971545698962,0
2,0.4,0.10920483666902281,0.028525360417725798,-0.058064830255395106,-0.012227704947772564,-0.0018588841322717657,-0.019160153761739983,0.11168337755299543,0.018641616974404633,9.663673652218295,4556.713220554673,4501.479249945607,4523.065190279067,4481.753204776657,0
2,0.5,0.01815578138722617,0.015555499557159761,-0.1889649292096153,0.0403055022092128,0.025812889218450943,-0.03177562529167901,-0.11022697404558555,0.0347561613803552,9.82733953988288,4510.670068456897,4505.747321885823,4515.187229679178,4543.419170981754,0
2,0.6000000000000001,0.028405160256432305,-0.05248277494549706,0.1362562852712452,0.032812291269765745,0.0630411346902417,-0.08987952265916783,0.0242882013150275,-0.20820987031889873,9.920629831275843,4483.553991054997,4557.703373844749,4476.761550899442,4449.324508860982,0
2,0.7000000000000001,-0.023563187035125985,-0.09877438856085688,0.07510994545073102,-0.04130166092512641,0.0005691516236631776,-0.16622494558849574,-0.03202978045366419,0.1643378155804534,9.88212957828716,4474.095191851052,4499.063895331828,4500.540506161334,4514.178910375303,0
2,0.8,-0.06834291816404132,0.029628363692366533,-0.27043916316027755,-0.012597691047276207,-0.009765476849030893,0.05066614608569908,0.002263085267686914,-0.14055630538562866,9.613001374836598,4505.960400286423,4497.627979744063,4482.626276710927,4485.57498631464,0
2,0.9,0.03480839985796445,-0.025884628643460736,-0.008809124402907329,0.043398731761610854,-0.028473652737678462,-0.14814741852597269,0.07835896647986068,-0.06786430612941033,9.746352494451477,4476.565308656067,4492.205995776974,4547.9561433628905,4524.063853758544,0
2,1.0,0.043111175594348856,-0.07081135278963228,-0.11511537365528693,-0.05678157318970854,-0.01618761642165508,0.07653625491085268,0.051694651574837096,-0.02215132629521239,9.80553994325639,4479.333433722738,4506.142766472053,4522.976348384418,4451.5233963776855,0
2,1.1,0.014982384391867408,0.046621743547733366,-0.04151002889633696,0.014014012242411673,0.05629308888945106,-0.008347423438951354,0.039330705000532366,-0.07380570836613916,9.846250232520411,4513.808148749469,4505.845270208104,4469.409140408734,4506.190853139764,0
2,1.2000000000000002,0.07310979693588185,0.022431788225726366,0.09619871890718411,-0.0047402394002525544,0.014998004788474212,0.022341427057322078,-0.09509107296872321,0.03185210047988745,9.611660667311938,4481.013591753456,4505.679849218771,4508.9173282014035,4464.323026047686,0
2,1.3,0.05269928855914381,0.028600313915023646,-0.07047284356108839,-0.030751695928983507,-0.002898091581628626,-0.03567549710889281,0.011314045705302282,-0.036311666115556654,9.408508627850999,4488.349591850965,4490.831426667951,4519.009830743222,4479.054009761669,0
2,1.4000000000000001,0.08393373366862832,-0.09558202753258786,0.13111674978026244,-0.0044863794175620956,0.017191697446871126,0.006384118724698648,0.11395555360254693,-0.038736196455281126,9.590275914964439,4542.615128618132,4496.595580623536,4506.646754208727,4537.042557421344,0
2,1.5,-0.05159776210472175,0.029774544881962867,-0.05898947564628909,-0.002643387112887437,0.001445579307685778,-0.12001774891575488,-0.07788370428204348,0.13510728924131393,9.98723823771696,4498.120812680183,4507.293703755387,4491.172724830906,4540.697501574839,0
2,1.6,-0.010017628889708195,0.011592104606742403,0.1146030144142065,-0.015547429696918132,0.03117578368993788,-0.12243691277947015,0.16296421311127987,-0.03726755839519746,9.761460250434943,4443.299694864511,4486.356158478669,4468.805804069193,4481.770609638796,0
2,1.7000000000000002,-0.006865548289443981,0.047889580723645284,0.020760335140062577,0.006153533068022277,-0.021910387776911247,-0.07046032716821841,0.1798725018351312,-0.07352010347632466,10.141241650411459,4492.708164033574,4500.068638084305,4532.110954806898,4538.15677265816,0
2,1.8,-0.005540628013954375,-0.019412152676076946,-0.005592044852221312,0.006759150564642366,0.01782607373739511,0.0003383887195321261,0.06188862980231537,0.1638359732270941,9.886261922452958,4509.349585680144,4454.432675247298,4421.078095895128,4511.651271876905,0
2,1.9000000000000001,-0.0047412115640436125,-0.025739133745737098,0.024353020418634463,-0.0012080745839381658,0.022555605012677973,0.006888869460718232,-0.07469232850701676,0.09901662389592891,9.76657378501076,4515.796100510169,4485.677678814216,4480.505193435077,4502.525046905571,0
2,2.0,0.000641432177184256,0.023991351768341652,-0.026864575330974257,-0.03672719567540795,-0.008655477671767773,0.06350547737150525,-0.029737607924310645,-0.024638340251454803,10.007275301181188,4478.640803182232,4453.715903452713,4495.181066414235,4485.474781462538,0
2,2.1,-0.0483123159876627,-0.008768922794934537,0.04915056472467837,-0.00018577123135631493,0.006139621453724755,0.14507261588123385,-0.03428788615575641,0.02783486346446696,9.708157327480174,4474.609208403391,4482.452770397467,4485.637242854349,4510.784273926413,0
2,2.2,0.11745378933503788,-0.03580217181379202,-0.04166253056154626,-0.001262460262224965,0.007915976974194942,0.0210840649563828,0.12840957939481173,-0.24263920705352082,9.332614025960867,4485.1236548396955,4532.919005626311,4453.030559051832,4409.771029809187,0
2,2.3000000000000003,0.028558970310960437,0.012182861185135722,-0.10902084067994298,-0.0197107920144186,-0.01939487439269349,0.008842825397915212,-0.0626315276183007,0.04940639189755197,9.239074667419123,4474.294444046166,4466.218381172668,4492.3097796488255,4483.8585672452955,0
2,2.4000000000000004,0.03989218899478833,-0.09296683858300288,0.0045491476330752,0.01116672846423411,0.037132948731239096,-0.03854127768747802,0.03244586043525171,-0.18038627925623651,9.331608759137396,4525.343231273451,4499.833191190558,4535.355380693953,4458.797913330907,0
2,2.5,0.02599510697643763,0.09344089202719266,0.04197056083572659,0.005531630111820975,0.00017112161648699664,-0.12567051657007297,0.13555729357103483,-0.06108576398050658,9.910896651276603,4453.108970802862,4464.616210064766,4543.052621976667,4489.580931331265,0
2,2.6,0.07266377380212723,-0.003911532952925891,-0.18418977729578576,0.01784135199463441,-0.011797846355112156,0.05589510508136348,0.002521086754008212,-0.15431182279428704,9.842858953074114,4565.886694264584,4514.789593755434,4498.274467409836,4532.260302058707,0
2,2.7,0.010533423260155541,0.010476711513139718,-0.10916251721591026,0.004676960515791967,0.020708868328338896,-0.06688497216800197,0.14244958212469477,-0.009170602414512598,9.632446097692293,4529.928962307607,4491.396172927852,4522.7854466245835,4491.247241032243,0
2,2.8000000000000003,-0.002991307176495185,0.02467801021671458,0.029089705759000592,-0.039910635609034774,-0.022424874801887835,0.07435279878326524,-0.013213658890154726,-0.05237313027714218,9.538285196948506,4467.607910361725,4439.3460408011415,4496.961578438954,4482.0468725825685,0
2,2.9000000000000004,-0.04832939454926576,-0.003406171258397655,0.036397063085273816,0.041863958644198895,-0.030237668391264273,0.09275048346404177,0.0973101561015072,-0.07790927393767005,9.850647190917206,4486.271002519871,4505.5706574125625,4545.273930402136,4518.168186978939,0
2,3.0,0.025430418661672102,-0.02151546599773212,-0.14840566649243353,-0.004169364210808158,0.024132163097278305,-0.1221734285271718,-0.10550893681766951,0.012626773623406818,9.613069043030547,4476.2242965865435,4487.292042548154,4459.031477874296,4470.776344613509,0
2,3.1,0.03517139583936544,-0.0653684891115482,-0.15978721344948377,-0.012600499590677888,0.014639110050196915,-0.015753744639751165,-0.04645810781156184,0.004435879751560705,9.46085851342807,4514.841169613251,4511.503050942109,4487.720745777128,4530.177735353893,0
2,3.2,-0.05637480494765194,0.056395449662678454,0.015449366559525113,-0.006731051797563468,-0.0003974727073662314,-0.008581181264875339,0.1220282896417717,-0.10766791274710136,9.657496152170681,4531.089086762175,4482.133951944485,4527.015992319948,4550.983079490261,0
2,3.3000000000000003,-0.020089751347081686,0.03406811632876527,-0.11536922813398585,0.015094665961356184,0.003988479719735342,0.037843062572817214,-0.06455720720353951,-0.16610834155671728,9.910650412949902,4438.097905425617,4490.479485232724,4528.235455992599,4505.756932076191,0
2,3.4000000000000004,0.09741713223949067,0.051255457629088674,-0.06538983883255765,0.0005462675970287733,-0.000947414050888719,-0.1265741410676902,-0.09403989164843533,-0.056076090697986025,9.402755899428813,4501.4248040475495,4492.527844660409,4449.813182960653,4512.12638595832,0
2,3.5,0.035793637234547974,0.011351723943244445,-0.03240681752089702,0.011828843035037099,0.013604407209533822,0.024592285577575073,-0.0824612250434761,0.02766007655111807,10.049096130165097,4482.101128241648,4562.938180173973,4484.231071980438,4500.972210400204,0
2,3.6,-0.03362427980031681,0.011163541796013044,-0.17422216926352752,-0.010920835976334425,-0.021842424006971343,0.010827067831383272,0.09944473755089074,0.06460061871145516,9.335668127828223,4561.262089587836,4508.8583982186265,4476.70502578521,4504.713837569729,0
2,3.7,0.008809491125134619,-0.033342435847578185,0.019791666734207552,-0.012149445752406146,-0.008087239853800455,-0.05490233086040676,-0.1432671289739653,0.01458364702153839,9.927059887303269,4515.446507882291,4524.597757579057,4509.730206300446,4484.018235053493,0
2,3.8000000000000003,0.04198319322155944,-0.06787587699209675,-0.09006713825124801,-0.019284001428464894,0.021601121182786204,0.07542308113120605,0.048730523704499484,0.10719298652117973,9.634143443517603,4510.457853595829,4496.244767148505,4525.4064631165475,4496.543273023434,0
2,3.9000000000000004,-0.01924714442050406,0.0270454259280495,0.08761691671912329,-0.013366903896936034,-0.001221513427047522,-0.08467525069133222,-0.24980610174929396,0.0200459631413729,9.931781071250926,4507.862004272602,4441.513148467369,4489.474517097706,4433.449567198468,0
2,4.0,0.06848505538270924,-0.05430272910590431,0.12554036094598964,0.018917392873682912,-0.018011807050721234,-0.0906227961014196,0.03503702163863383,-0.08443240371830711,9.830496928431643,4485.515172275793,4446.565247566031,4433.0859594262665,4506.800527454838,0
2,4.1000000000000005,-0.02807788731653127,-0.027654490845706616,0.06958638390937853,0.023468845532648896,-0.0054508944272361835,-0.02724789655278892,0.050014303311388376,-0.13569355696995752,9.85463061094954,4516.556579154664,4520.406906252529,4441.897418924926,4477.159341905732,0
2,4.2,-0.043913162641173335,0.004994347720460649,0.0480744579767984,0.029934208148919627,-0.009899309607361462,-0.03980579986473711,0.11496720188787471,0.02965769385303051,10.063530302237595,4508.661840090295,4465.286501438602,4460.006149356665,4453.454632528232,0
2,4.3,0.03310259173792366,0.059429841154350405,0.18493621413863812,0.016862106646464804,0.023256771550699717,-0.046401306612294774,-0.11564158167438568,0.08500793324175533,9.893536150447881,4503.223331230227,4511.621144418989,4509.695564473746,4538.514505795607,0
2,4.4,0.06474927924084779,0.027211017617017354,0.08458028725629282,0.010281251048495517,-0.009223394640692379,0.060525173993051205,-0.13944950688592617,0.10538915522958832,9.571095412046793,4508.574098603842,4474.6453812472155,4516.601669492233,4498.982243222163,0
2,4.5,-0.07973779790816662,0.021034981550923943,-0.05779207768327106,0.01762293441626738,2.651377468814459e-05,0.03163367883104305,-0.0957568955015212,-0.05893322314273619,9.718272272779783,4525.701074407277,4550.321312634164,4475.844847447714,4532.3054443397305,0
2,4.6000000000000005,-0.10848387088628511,-0.059709470054614466,-0.09587784561867749,-0.027050173788814448,-0.0316717677957516,0.03303991297102381,-0.02140676977278614,0.037940539760510976,9.948094537224303,4507.968509795176,4519.732895284511,4497.914031412732,4464.390198350828,0
2,4.7,0.05289070904103981,-0.02945560663905635,-0.0935596298762426,-0.0035583575160879634,-0.01825621838593026,-0.03339443055915458,0.03440539215634665,0.03483417392461269,9.630433986714875,4485.368838811538,4532.229990143107,4514.892003532018,4562.251951180457,0
2,4.800000000000001,0.059006408687076385,0.057214653427996955,-0.1387868550455802,0.015277207032668452,-0.0010621360339382131,-0.04407854428305996,0.01680153405325285,0.09452115346114837,9.910166318200844,4473.6457859597385,4522.273767407779,4480.872373737721,4506.5004935689285,0
2,4.9,-0.015167503373856712,-0.010943312586781287,0.07662429750405096,-0.020803874396317958,0.03890390148553866,-0.1456868855435597,-0.05976676832548571,0.0370211889941741,9.926862833287062,4496.985728382849,4498.278278909954,4512.316502559828,4493.06791567627,0
2,5.0,0.0696590628967453,0.041967455711580115,0.08728243510056347,-0.01932313446740834,-0.0015877684881140575,-0.024037275897656297,-0.10056013756894658,0.03601641839457669,9.702470848444037,4519.662114895507,4467.89425311317,4551.571218385255,4473.1100202422385,0
2,5.1000000000000005,0.010965116860021804,0.03959296551940338,-0.05706404302001128,0.017049372868659013,-0.024583671956008326,0.11616941593460484,0.0014149264965758294,-0.05964114079688796,9.750163645514514,4524.267578081782,4482.466341244487,4477.519269317317,4493.3539020724875,0
2,5.2,-0.058848105638498405,0.09102719539709078,-0.05663945912147233,0.01663233572360807,0.0041894016729554515,-0.07876272403855744,-0.0005954709212729384,0.0784002779310748,9.77234773298274,4535.79338837553,4530.645461783456,4527.56744563975,4486.21029683181,0
2,5.300000000000001,-0.05399212238907435,-0.030679380268139725,0.019624094066672048,0.01091573427064711,-0.04343142809520895,-0.0006490561289400232,0.015808922532318442,-0.027754425631555158,10.068254767803177,4512.653402227526,4539.305757242427,4493.521184389493,4528.124324775208,0
2,5.4,0.08175331972637598,0.06558467246363306,-0.10921415934287332,-0.005073521550847619,-0.0069032941089959285,0.03914036280610621,0.06863535550145332,-0.08388926740257363,9.823567702783388,4439.402180035316,4543.258350174056,4484.628772779699,4501.675918195335,0
2,5.5,-0.015482485699403062,0.057301378750670755,-0.2837506441397379,-0.00033220684651817976,-0.002116375149953958,-0.03629091100733462,0.17262265456356327,-0.08873294588557712,9.964359235447132,4510.6875836611825,4537.845577576066,4479.984327456675,4478.010933026288,0
2,5.6000000000000005,0.05480349537386993,0.02126606541650552,-0.15449373466767588,-0.010786100289265408,0.00772765307696122,0.06702113772372713,-0.06792306531929551,-0.2914255989816941,9.914644637147408,4463.390379301681,4439.479836056327,4415.030222250476,4524.419425805932,0
2,5.7,0.006430872520248327,-0.011282819035612582,0.13890243629627616,0.01274649366046145,0.03232600085443833,-0.11141883777335972,-0.0034550623953963516,-0.16167133749480145,9.764123533628908,4492.541524386999,4518.798409117892,4501.366916434257,4518.702214148398,0
2,5.800000000000001,0.03517200665694471,0.10774643386915711,-0.03152966552861244,-0.018820454013327582,0.0049216723063281766,-0.06418240217116349,0.1481960768436536,-0.028321803894523257,9.696884726425202,4485.860528365466,4521.552522704149,4495.2675905030555,4480.749995396089,0
2,5.9,0.08326759588117655,-0.04280849203308751,0.003556607403299353,0.013046123032204609,-0.03262670220834146,0.03842084011247399,-0.10551076754804495,0.08227827808340026,9.617469797616206,4520.7830709554655,4533.174991988842,4525.843095768984,4507.5394994471435,0
2,6.0,-0.011565047146484972,-0.028820978816742195,0.1471034690817104,-0.013989904403352864,-0.020741321471399923,0.0532295148026264,-0.07961368031864954,-0.09500634974661272,9.521279147566048,4485.512704816185,4497.518549283105,4507.292751829821,4528.539187328985,0
2,6.1000000000000005,0.026344896183289685,-0.00954361097765899,-0.01981956763797199,0.01020314937830367,0.02545140325857139,0.010105135958656015,-0.0469130854210409,-0.09928660010855456,9.520958947117556,4519.988090161306,4517.339355709187,4517.320905753199,4496.1402166094385,0
2,6.2,0.07034673729458754,-0.024205924729240887,0.09552692372072055,-0.0007748578997908605,-0.012167015293586752,0.04740242458542091,0.04096361186839937,0.03569727592669261,9.82625568441124,4498.863207548495,4571.651159786114,4535.5276993558855,4521.684806849566,0
2,6.300000000000001,0.005589957910169413,0.05035786002983346,0.05179947763914519,0.0005240950554807133,-0.006071286505318301,-0.006473387013015057,-0.3170425735878056,0.02106008392976418,9.71230478397793,4547.780099948486,4500.580322124352,4464.331097413951,4498.503595376156,0
2,6.4,-0.05230605425312521,0.023670370785623323,0.02909473643394854,0.019156792622165353,-0.015817635833891307,0.0027206476982517443,-0.13650217954266353,0.07014947819247146,9.913774236088026,4514.874150630827,4500.0485709407085,4512.4431867236635,4548.1301732492575,0
2,6.5,-0.014254712852100698,0.006932259185504225,-0.10861262991814098,-0.01736521923196665,0.001956265861866148,0.08831468373615257,-0.025628082425157246,-0.023591652931212393,9.728622951099126,4483.957299874671,4508.849143671265,4455.082270644641,4538.428187300002,0
2,6.6000000000000005,-0.033271114906473026,0.036095174271907074,-0.1269998597393876,0.013376802610924363,0.01343889215628995,0.030736165760471723,-0.09944285217997922,0.024954818959807702,9.573388763053122,4492.417102347114,4530.88239302866,4523.901057812122,4500.455488276213,0
2,6.7,-0.048740328796142096,0.032279385608709674,0.0019381237698025214,-0.04640631196460847,0.015652596526330362,-0.0019386267095753717,0.12024512479830723,-0.10952705188428047,9.1746592373608,4508.372515750356,4508.74691030046,4449.2798511718065,4470.645013624002,0
2,6.800000000000001,0.13776088718599508,-0.015280530707690169,0.07309589763762162,-0.013013196547367673,-0.04180605797706313,-0.013620659743672442,-0.02656045602861052,-0.03998782386683715,9.787071832898722,4507.928048149369,4495.496491462386,4462.079814961579,4514.585543746858,0
2,6.9,-0.09746858776612116,-0.10251787286421002,0.07391804947015679,0.010140405442707136,-0.0011479073014807203,-0.11163588038040576,-0.07079109406740754,-0.026274674768650405,9.490821206285178,4477.829140259303,4519.5699101453,4542.819160928677,4487.416957420243,0
2,7.0,0.03782441771580492,-0.09570300352937337,0.06594512411136115,-0.01607896829454962,0.006146912334159402,-0.01982019345917674,0.13204140097838343,-0.08744356483399182,9.935521259512367,4491.614776101104,4495.25083565971,4494.484383205224,4474.629806865177,0
2,7.1000000000000005,-0.0007049482953335789,-0.003132411106091075,0.02412402484067293,0.0016901029138572516,0.015959890992244725,0.07388068928378949,-0.10506233218278012,0.08687725005907711,9.572732714578029,4517.635676644132,4518.592163541086,4442.660493250125,4502.789377395882,0
2,7.2,-0.02342480566801579,-0.03793826289676875,0.13508523306990056,-0.01307358281274838,-0.016127538582360997,0.006055595200407476,0.06855897462984165,-0.01416485860101269,10.04327410913385,4515.929269858922,4434.6536604080575,4484.11599109479,4483.144737019449,0
2,7.300000000000001,0.023968047671471118,-0.1312408528187056,0.2549009708717722,0.010620521897884202,0.002977536078353822,0.0945254173135317,0.23436540528126248,0.08707466445884032,9.999762619294325,4503.920700733932,4495.754227398991,4485.726136679853,4475.216640248564,0
2,7.4,-0.03435070498497487,-0.06752779821714916,-0.007587145068502332,-0.03369335154452774,0.0038183304828742137,-0.0029064486433873393,0.014693529838668779,-0.052213157001999244,10.425372074036101,4540.803477005409,4462.663724997458,4506.986042622807,4481.75981571188,0
2,7.5,-0.0507239863353707,-0.06700360355619675,0.043221669075925395,-0.013627604701391478,0.019356520480504083,0.07950257716243513,0.13739143852114497,-0.08523867660741036,9.905073122138402,4518.973626499269,4485.774654746881,4476.846841278214,4548.28561997328,0
2,7.6000000000000005,0.011374793786602687,0.0317983875355869,-0.08220760118279274,-0.024385689330443876,-0.01138899548984221,-0.009921710991199763,-0.1064220006817349,-0.0009844808650383006,9.4722989623863,4466.398577325904,4520.127337448306,4518.113715608337,4488.243697038394,0
2,7.7,-0.050888215453847654,-0.05137017757630055,-0.03732682459413141,0.012890369832905828,0.018564913826886492,-0.039722538838557524,-0.1153492425984784,0.026784363786633333,9.64529300587483,4484.452420834164,4539.758282713111,4524.813462856973,4504.739229367544,0
2,7.800000000000001,-0.06359595005563615,0.010569828373532946,0.10626572907875265,-0.007512673315310712,0.027022281799734302,0.10341962316145656,0.16637328321434736,0.030524312653135294,9.927478339961203,4542.425618649932,4513.42181811207,4484.962976766294,4486.5437149041645,0
2,7.9,0.011927747688686959,-0.06452807109731094,-0.014325891536419263,0.021930942364605074,-0.04382507702330562,0.1227585681435612,0.11223742187031596,-0.045976461583047634,9.918678165574363,4500.09443180719,4536.899711053161,4529.480494283098,4457.99787830451,0
2,8.0,0.02936312067320884,-0.010281392682162382,0.00828325705180999,-0.01456343801939631,0.03496274138241671,0.08320494559220608,-0.07397711639729673,-0.13346106069102326,9.73286547380443,4513.035079382739,4507.206175318387,4537.593984743047,4523.6975916654255,0
2,8.1,0.048478451287645344,0.016342770030521866,-0.13892987302109902,-0.0039139706229380285,0.02120179479817331,-0.004121834281971685,0.05030903686237468,-0.03187483152461331,9.604037630291632,4496.299678078617,4509.271423290979,4480.329368416156,4492.9286626543,0
2,8.200000000000001,-0.04697316209929914,0.0559622458782048,-0.0294455757588034,0.029055110902523662,0.03057495701081817,-0.006483677177739501,-0.10084487325473497,-0.20858978777333373,9.515592585394643,4458.784955253041,4541.354088823845,4503.474737616808,4511.688135722759,0
2,8.3,-0.11102105044675631,-0.05989832146086308,0.0887079776446287,0.005735482247651725,-0.0029441055737119454,0.045187388688009804,0.1635797806135815,-0.02210424635370506,9.823873960531614,4505.777907561939,4571.76328905822,4437.019312067429,4520.496690443664,0
2,8.4,-0.005740112437953184,0.02833858630920898,-0.06573725539947244,-0.0009793006171690051,0.014228211589309902,0.24903281608350727,0.08080361894020716,-0.08480655980305087,9.72524806359546,4486.397576748484,4446.130704821099,4490.097294248957,4521.984872454653,0
2,8.5,-0.06371160595383976,0.052424132552529625,0.04877748210843382,-0.014684666439420757,-0.0028305927467569486,0.12786574461128264,0.07335478135058658,0.0008783654898147817,9.762463336607803,4502.2982721135495,4484.647093261731,4436.85751482843,4561.265337316042,0
2,8.6,0.007766249959970073,0.019907363256126857,-0.005790774987690872,-0.01470233601449176,-0.0037184896189754145,-0.1279515809755449,0.22770864980533045,-0.12345119984223961,9.603606743230564,4486.792223868408,4538.642271745572,4500.435269977879,4462.915926119086,0
2,8.700000000000001,0.06271691803786698,0.03655003133927407,0.05384349572164524,0.014314684823416808,0.047887238011649014,0.17480759160288897,-0.06867153430032953,0.16238849928111523,9.88663363795178,4514.972874484132,4449.2318750507,4494.888427038354,4475.615292289903,0
2,8.8,0.04140294074466547,0.053554025020140256,-0.20744863510163114,-0.000440697280085409,0.022437230095885045,-0.014934316985075597,0.07290636450023645,0.03511654676270841,9.878332046390526,4491.860550657951,4463.502575875928,4466.35409557725,4521.28057543366,0
2,8.9,0.000972912775944156,-0.006925612230361238,-0.04238900423223526,-0.006103776909615035,0.020938235889762787,-0.02681952654944214,-0.13410647133015688,0.07436517755401732,9.769024667227058,4500.941875965983,4548.227349191985,4499.383183279485,4508.675510193561,0
2,9.0,-0.05894617456491627,-0.010983472617548007,0.060952604520860126,-0.031107474676824846,0.004016901862314192,0.008063285811584504,0.004128745558743939,0.10371588986582432,9.876887702969706,4544.342156950694,4470.192314532179,4504.077737016551,4502.534003591699,0
2,9.1,-0.05346272468775401,0.04781475010456731,0.2324673305852818,-0.0003401214896766199,0.010100421765475338,0.00676147806522618,-0.07135846699071759,-0.18207602778020163,9.668845303380927,4458.241248571448,4551.123062341773,4496.546709182303,4489.622420128585,0
2,9.200000000000001,0.0444576912393903,-0.0560875551427944,-0.07668640380045524,0.0013614453849724207,0.02057537982846961,0.04013480361350306,0.024832514251588222,0.007811773523601635,9.890047171105355,4506.049587153878,4469.100831756692,4501.382376648995,4467.789340232467,0
2,9.3,0.004054127145041186,-0.02403239707441207,0.25393816227828614,-0.0007978876750342384,-0.028084791325231777,-0.010734416854153965,0.051935874563788814,0.16733639461525238,9.692109520012258,4452.527160779291,4524.50511034293,4458.58203882301,4486.915336754775,0
2,9.4,-0.012881024275549702,-0.0034816726650054087,0.06891644570743356,-0.013672685645727753,-0.005474585043335214,-0.0011416282359510805,0.014959795751878805,0.009782717470792268,9.897201155044517,4525.315185289252,4511.779023469529,4513.607565705276,4452.533304997605,0
2,9.5,0.002511384958284022,0.023975377400080433,0.07289411945704503,-0.013847015484675885,-0.0131807854977729,-0.04592805402268787,0.05364138998913434,0.10338810549242086,9.72850797854168,4527.238869408811,4503.704394274938,4496.271426685127,4493.658473105461,0
2,9.600000000000001,0.03733056823010786,0.016278890839353504,0.22758254276476375,-0.017044492859946483,0.010362034040599514,-0.04233608078492103,-0.08692869869886438,-0.0010867137034972145,9.837470495881409,4587.545206651803,4494.475625529504,4466.09463811546,4508.190321524831,0
2,9.700000000000001,-0.10373200187731842,-0.0045978391302132935,0.0016025282295160427,0.01589200765890423,0.01947244498855694,-0.0402855695126174,-0.015061401462993302,-0.0766120830610671,9.584387489038463,4509.296843381419,4461.792433542102,4487.561192982844,4470.144781203023,0
2,9.8,0.027484159314512986,0.0900715049633244,-0.13015879828033314,-0.037060369657951384,-0.002497737707001348,0.0012558236766206704,0.021865930675729773,-0.044632051523434496,9.769872140234915,4511.025312316218,4531.212926779345,4441.348536890451,4488.9318168290565,0
2,9.9,0.01069043969705317,-0.0458988052305368,0.17311696317672998,-0.01270819760457474,-0.0008258537401456568,0.044481767747383265,-0.059128478880189454,-0.18465730478044173,9.724269094616695,4530.883216677811,4489.893146196446,4474.606970956231,4527.770166285081,0
2,10.0,-0.016538744801152635,-0.025508040682510863,0.014945608966330954,0.015415004192375749,0.04763427063465092,0.06617888861259384,0.11598399663883444,-0.050596619898785535,9.604826378806106,4501.869940488574,4503.215097457788,4467.644617759062,4494.741164102879,0
2,10.100000000000001,0.019965880085956546,0.018019669750904008,0.05042878533842724,0.0058192946027488595,-0.010140173185401115,-0.041112050131907454,-0.1198951397993876,0.1784775039185095,9.812690072923859,4493.254408326155,4472.136237556426,4588.0697370698335,4467.800159033313,0
2,10.200000000000001,-0.02144239628030367,0.020791841814303026,0.06002129657442778,0.01915864110431368,0.036152170155385265,0.040492612436856985,-0.10560307999666677,-0.025694512512178153,9.871566474502778,4562.046781245174,4458.065835647271,4536.077295156757,4505.397431086392,0
2,10.3,0.041891526761474035,-0.0050997358317966,-0.08424326301263264,0.01501745558802664,0.013088620542112423,0.07776455725917775,-0.001330463537863531,-0.05998220233198494,9.498242600995232,4524.581198044182,4512.716684473319,4471.0265210140815,4483.842789801101,0
2,10.4,-0.023337940597572028,-0.0741492215991209,-0.08176823966051339,-0.022676607136127083,-0.008249580237758734,-0.059095799866365026,-0.1627004920866749,0.20225902305694815,10.060508146205846,4476.6294173544,4508.172641899609,4512.523952694639,4535.732575643205,0
2,10.5,-0.04093025133300393,0.054605339199121306,-0.05479053042069351,-0.026717248083372266,0.014482731186289946,0.10326067392979425,0.2587908973530685,-0.11997252650902135,9.949783937016159,4487.705962686194,4523.500761315721,4455.885313463063,4462.116906729043,0
2,10.600000000000001,-0.038793741158324194,0.003948202283404226,-0.06410812665383554,0.013181086878268394,0.020537892365158288,0.04796620329962847,0.1618787639660868,0.0415826629455343,9.566620657931967,4540.90129540615,4481.84531293182,4527.312554990567,4547.212026496653,0
2,10.700000000000001,0.022834400536519958,-0.07480794065823249,-0.09182121665097916,0.026454889337702712,-0.0033824537128563275,0.006365882795373267,0.07588244161636093,0.06963228620803234,9.865759962477092,4493.739948863386,4490.6199466280295,4525.73696475874,4516.607085932033,0
2,10.8,-0.012865000030889482,0.05410561564965704,-0.012903411512978379,-0.017033243486687867,-0.015179413978066896,-0.07829926690478128,-0.02724100166036872,0.1233724278336193,9.648980963793898,4505.654272830543,4480.299319631177,4492.190728761857,4454.698763640443,0
2,10.9,-0.01102691145782687,-0.009685268990248103,0.05402879440356954,0.004465618265107411,-0.023967842499040905,0.08673585952348342,0.021030304022199537,0.01983935171774867,9.808163529322973,4484.467276583334,4506.5340701924615,4514.267653077857,4447.593129259633,0
2,11.0,-0.026938041867304786,-0.012747348520179468,0.025617060569427814,0.02386622011854252,-0.015434816291935648,-0.03983694774542736,-0.05125341106465501,-0.08015275901045416,9.740562700977549,4523.124066599639,4468.38493513907,4512.834431854587,4448.94293309945,0
2,11.100000000000001,-0.0280668998221103,-0.016474465010899303,0.1674859672914065,-0.00549604609505376,-0.04402486946901837,-0.1599111125489,0.003402958634668099,0.06137708557899087,9.88509117152545,4505.027103174029,4534.86778792517,4483.812263377886,4526.847316680804,0
2,11.200000000000001,-0.08160074425132087,-0.045247391646903314,-0.18070413949318165,-0.0054969060133958445,-0.0009252243453268508,0.009128119378121594,0.0061883352887135215,-0.0927553330811728,9.771951831117358,4455.076599941827,4540.896869253967,4490.89121781306,4485.333416428689,0
2,11.3,0.07944701642220414,-0.062112326677461464,-0.11255871140319691,-0.021924406497371304,-0.001357427633989638,0.034530530371007784,0.07396754681178337,0.2571995317494969,9.360113509159849,4518.262067673732,4483.286082822833,4482.407545533337,4481.406836152383,0
2,11.4,-0.04543848354039867,0.0842262417301726,0.08422973270139028,0.00046391957114749646,0.027020315049740007,-0.12100231722391006,-0.13307051313309262,-0.21779677321946878,9.670117091975342,4504.850955801143,4503.08575733797,4504.480257331797,4457.668295068018,0
2,11.5,0.0401577371307011,0.011981375911949898,0.07330542814659985,-0.03785524355180104,0.006229817175955797,-0.09502121919340216,-0.03973232525513619,0.05343648986363834,9.828218721251183,4474.4538006066205,4500.188194685533,4454.053940542691,4534.508021876949,0
2,11.600000000000001,-0.010264200974812563,0.0559274972127663,-0.052653168709604306,-0.01047151976813166,-0.01528373573275693,0.07009391453544603,-0.07094311573284759,0.06445954324151765,9.733509520466143,4440.7211010032515,4482.890577966406,4464.626753569115,4501.01708171047,0
2,11.700000000000001,-0.05952038678372451,0.04629875503573084,-0.009107586035302723,-0.0035519198951747795,0.013117842755751652,0.077112554726069,-0.0020098751769651647,-0.07712002995492906,9.455206076777575,4479.418507288945,4481.483632600562,4503.211723589769,4489.64559356586,0
2,11.8,0.034396648602571404,-0.030649163563534476,-0.005704116685294177,0.023679748863937786,0.006836504279099331,-0.004803003335085161,-0.06019444419351771,-0.0633231396714977,9.63987734940961,4483.769794026513,4522.669975162329,4493.343351861232,4459.506807918563,0
2,11.9,0.08840846465298918,0.015998259557258154,-0.14069434005131695,-0.008836978544816477,0.002217727656568357,0.13636736746379016,-0.11081124582588693,0.09760407193559467,10.08989728539447,4481.140370847763,4491.674591434193,4468.910722578787,4493.896165767591,0
2,12.0,-0.0018294987171465584,0.03298249990411852,0.10901834710204468,-0.014961921292432942,-0.03934650128451989,-0.0016995823420993704,0.029353752996864053,0.024941768768504166,9.744665350498192,4503.742562989918,4545.463344250567,4511.452025068876,4488.7989472499075,0
2,12.100000000000001,-0.02500989085479979,-0.008492617883886533,0.163673996183064,-0.003666014190523946,-0.0003958868904141594,-0.038585085674904235,0.10989833574419648,0.19598372547446752,9.900122609886278,4502.483187113563,4501.103484995227,4428.470796336428,4522.354525928545,0
2,12.200000000000001,0.006708320799792177,0.021417102533036247,-0.07114621940837049,-0.0076891375795418325,-0.00822049873006346,0.08172983872584311,-0.03787598366030934,0.20826603221097978,9.896172483803008,4461.729520200128,4496.143611202441,4480.449746335307,4434.168525905399,0
2,12.3,0.07997354700568948,0.0351571271110002,0.053320731789931256,0.003308073205994085,-0.027640351373848755,-0.03868937116443494,0.08417807747840128,-0.10512200297825028,9.303646136749837,4493.186819766573,4495.747273379174,4504.066902492441,4521.855559305436,0
2,12.4,0.03188029061156043,0.012938490262196081,0.11955313880867094,-0.030379395616266295,0.010091636289547805,0.0501230690669554,-0.12395622860802397,-0.15028706086823895,9.66081157470488,4480.153756724541,4522.602583905073,4481.5638364892675,4474.309544451564,0
2,12.5,-0.030581686834727957,0.05593161670771059,0.0013043374376952134,-0.003585020507138236,-0.0022001099740210296,0.10336482674612181,-0.07491717266032419,0.1315508290940104,9.852099259784302,4495.18741854074,4575.0270149380285,4468.3308153060425,4489.38942721299,0
2,12.600000000000001,-0.06162156195820001,0.047623098526808474,0.1689188933651679,0.03339845562809278,0.024478975062920096,-0.01580963742367725,-0.03652409774898465,-0.16711697724940652,10.217174707036358,4514.069342344454,4485.241292853915,4539.841706669609,4470.8170644972,0
2,12.700000000000001,0.020331101711133705,-0.008631456714541734,0.0638677139880301,-0.0012714707837224292,-0.029018557822224483,0.006046109813603026,0.10488641418753622,-0.0029216405853985244,9.965023024317818,4468.634115429779,4499.212176201904,4481.264686347343,4522.409425203141,0
2,12.8,0.0015745781130997887,0.03450368381683063,0.10877104261578661,0.013832371502427767,0.005462368685872884,-0.07985698068091242,-0.0002786110666901238,-0.053309040201583315,9.741187208659156,4488.763975477493,4470.602232756532,4441.27984232598,4479.955708550167,0
2,12.9,0.009668972596207954,-0.06740885227137451,0.0015682236471624344,0.03800536848621929,0.020461131105044786,0.13148332072964233,0.03911278769327262,0.11675098229864461,9.665207053906443,4480.66979198934,4417.825793815876,4535.584364221269,4546.2097193945965,0
2,13.0,-0.0276588622673635,-0.012697585319861754,-0.07538621136909615,0.007653071029549832,0.022498650906064815,-0.13942175791048328,0.04094385306422523,-0.027667177171914543,9.832678878393338,4513.769820050229,4494.353926836815,4496.892394397826,4493.583744973361,0
2,13.100000000000001,0.04851581008941407,0.02093799800637483,0.022058353773736078,-0.025419034421845656,-0.007571594864263084,0.07189353282713394,0.0037696573123922905,0.06595314695891384,10.163302360065527,4531.158182076265,4502.794750130993,4484.6703248941285,4423.393512118323,0
2,13.200000000000001,-0.008419246123642627,-0.016300624790842457,0.03903661943953757,-0.0030781045394937517,-0.006407701188735887,-0.14235191444057765,-0.09399678291500665,0.047665104080055753,10.15318152622654,4497.074238487631,4509.834332207223,4528.574344708584,4475.673181913992,0
2,13.3,0.018340702164272114,-0.03702450531660793,0.08648244384910114,0.0030280609590346524,0.005969036279628795,-0.06260788779348712,0.0707032359610785,0.20847129212310161,9.608417660914359,4489.807229770574,4506.948224225042,4523.592186359874,4483.213611441316,0
2,13.4,-0.141651514507137,0.06795947470820125,0.07605061195841427,-0.034858950609733305,-0.012151375835591118,0.1254545943621861,0.1447796418457866,0.09386400226789447,9.774777513208027,4502.489622564375,4496.0722258462165,4533.847193498065,4473.724727805146,0
2,13.5,-0.04028998274421024,0.05051372934180079,-0.004436145551156164,0.027569347109076162,-0.013430244139610914,-0.004382268827106008,-0.09224129848439533,0.0007362681423567135,9.514290612600242,4485.370997371351,4456.912384052156,4520.817696995738,4521.49768019279,0
2,13.600000000000001,-0.08651313652421726,0.06669428727502864,0.2497415126419854,0.0009201277347268191,-0.012822285204492896,0.2259464472802437,-0.13189684983025107,0.002010646686909839,9.845924454526385,4540.354428613572,4510.792169253804,4485.040983126347,4471.464468888361,0
2,13.700000000000001,-0.01709109101230678,-0.05034636804725721,0.004782531978468295,-0.01128392359720973,-0.029880755865795014,0.1004116630699923,-0.04976725234290394,-0.12681368049753125,9.776348173102493,4502.05114697903,4447.605998232629,4509.949430013773,4468.585272939292,0
2,13.8,0.08555144045953939,0.02619802560383674,-0.03998999901093166,-0.01490335540634701,-0.002099354151272479,0.04902325932666318,-0.002549412858519966,-0.021715880713685663,9.82167405816358,4481.884232062891,4489.703822194709,4437.42622683285,4529.211786925571,0
2,13.9,0.014939889016088096,-0.03867279220167151,0.1898734981355239,0.001740329607847731,-0.020722871439503937,0.06853899371763668,0.03980482165092625,0.03945799854842194,9.724848879069683,4513.514871713341,4492.147251293367,4516.678243549375,4442.851666379681,0
2,14.0,-0.021693673148959456,0.08610775489040974,-0.07670674554003006,-0.012076765949863733,-0.008959226768999502,-0.09718449087109146,-0.22082807762282522,-0.023058639852361285,9.837171884816332,4498.42484794384,4495.653643141563,4501.2912261255115,4530.685244146523,0
2,14.100000000000001,-0.00952230929646084,-0.02870412885436348,-0.028112548488808634,0.011586935195135515,0.02824053757086499,-0.050251499133534265,0.009893378702888372,0.03383574419359597,9.611484398654236,4500.612515016388,4456.029784279737,4446.928490887818,4511.002392236767,0
